"","fname","time","text","block","info","RT","fix_cross_time","risk","rew","prev_rew","next_risk","prev_risk","learning","critical","trained","last_trial","trial_type","blink","blink_time","blink_duration","meg","Zmean","Zsd","BL_fix_m300","inter_trial","V_m1999_m1950","V_m1949_m1900","V_m1899_m1850","V_m1849_m1800","V_m1799_m1750","V_m1749_m1700","V_m1699_m1650","V_m1649_m1600","V_m1599_m1550","V_m1549_m1500","V_m1499_m1450","V_m1449_m1400","V_m1399_m1350","V_m1349_m1300","V_m1299_m1250","V_m1249_m1200","V_m1199_m1150","V_m1149_m1100","V_m1099_m1050","V_m1049_m1000","V_m999_m950","V_m949_m900","V_m899_m850","V_m849_m800","V_m799_m750","V_m749_m700","V_m699_m650","V_m649_m600","V_m599_m550","V_m549_m500","V_m499_m450","V_m449_m400","V_m399_m350","V_m349_m300","V_m299_m250","V_m249_m200","V_m199_m150","V_m149_m100","V_m99_m50","V_m49_0","V_1_50","V_51_100","V_101_150","V_151_200","V_201_250","V_251_300","V_301_350","V_351_400","V_401_450","V_451_500","V_501_550","V_551_600","V_601_650","V_651_700","V_701_750","V_751_800","V_801_850","V_851_900","V_901_950","V_951_1000","V_1001_1050","V_1051_1100","V_1101_1150","V_1151_1200","V_1201_1250","V_1251_1300","V_1301_1350","V_1351_1400","V_1401_1450","V_1451_1500","V_1501_1550","V_1551_1600","V_1601_1650","V_1651_1700","V_1701_1750","V_1751_1800","V_1801_1850","V_1851_1900","V_1901_1950","V_1951_2000","V_2001_2050","V_2051_2100","V_2101_2150","V_2151_2200","V_2201_2250","V_2251_2300","V_2301_2350","V_2351_2400","V_2401_2450","V_2451_2500","V_2501_2550","V_2551_2600","V_2601_2650","V_2651_2700","V_2701_2750","V_2751_2800","V_2801_2850","V_2851_2900","V_2901_2950","V_2951_3000","resp_1001_2200","index","feedback_prev","Zmean_2","Zsd_2","trial_type4","resp_flag","group","train"
"1","P001",2599058,"RESPONSE REW VAL1_20",1,"1_20",556,2598318,FALSE,TRUE,TRUE,FALSE,FALSE,FALSE,FALSE,FALSE,FALSE,"unused",FALSE,-1,0,FALSE,4896.69603769499,300.578838801003,-0.0975810953913667,0.108346569619525,0.755476328515963,0.767362484322064,0.782022076482924,0.747552224645229,0.795017606830927,0.692955148975873,0.442697541276497,-0.0973013225908283,-0.500177170840542,-0.79004089043199,-0.99876178638712,-1.17253738427232,-1.30225496463623,-1.22713210624744,-1.20701037436898,-1.01635251241542,-0.812386863347457,-0.852165864778542,-0.729421495820874,-0.371806688134649,-0.354294418580327,-0.240900492190124,-0.0607856112083413,0.0666339790330603,0.218776773351151,0.337955295566993,0.41220414883577,0.455311273892563,0.513949642535991,0.548894940605931,0.571240913521398,0.571637118714936,0.556105875128297,0.475676220840347,0.436689629796335,0.251899527530821,0.0871574080582625,-0.152942939224978,-0.437814473377863,-0.709373513027916,-0.839645780662783,-0.918173650021759,-0.931089939331052,-0.944006228640349,-1.02649614993469,-1.04036333170847,-1.10034879800993,-0.989886790051899,-0.945749531491909,-0.839725021701492,-0.5710186594449,-0.584885841218685,-0.525930508420427,-0.372599098521722,-0.228459649113071,-0.120850318548504,0.00030922963501791,0.0861272745550662,0.16433817975921,0.2495222963696,0.314896153303155,0.393027817468593,0.449605919105632,0.475596979801641,0.493980900781742,0.494139382859156,0.503806789581454,0.382171795165688,0.0439710419627602,-0.42783010250074,-0.748835550304171,-1.09757536165517,-1.40756630507829,-1.55281512902884,-1.79224497521533,-1.89553262143808,-1.92905767627581,-1.96258273111354,-1.99610778595126,-2.02963284078895,-2.06315789562668,-2.02123329068597,-1.86557950880671,-1.6872871717152,-1.49037319052745,-1.05232872855328,-0.814209407237726,-0.621812165256308,-0.471491914828482,-0.262533295757228,-0.210868138520043,-0.120850318548504,-0.0505635172150947,-0.00737715111959606,-0.0669664122275153,-0.295180603704651,-0.343596878354837,-0.391775429888899,-0.480049947008874,-0.648040949068436,-0.871910090256455,20,"prev_rew",4890.72195215003,252.39447041912,"norisk",TRUE,"normals","not_trained"
"2","P001",2622165,"RESPONSE REW VAL1_27",1,"1_27",1406,2620576,FALSE,TRUE,FALSE,FALSE,FALSE,FALSE,FALSE,FALSE,FALSE,"unused",FALSE,-1,0,FALSE,4896.69603769499,300.578838801003,-0.366730786249865,-0.0816168831177427,-1.19226840291044,-1.01318365543186,-0.891944866209626,-0.735840019956168,-0.420658788497724,-0.214275503184457,-0.0614987805567085,-0.0660947608017336,-0.0351907557058704,-0.0240970102868421,-0.0123693365581557,0.0253493978665361,0.0445257292337129,0.0142556524475078,0.0229721667053181,0.0174252939958021,-0.0540501229182181,0.0166328836087294,-0.00983362331952315,-0.10967733209077,-0.304134841078582,-0.462616918493261,-0.592413739895884,-0.739009661504463,-0.802560974547749,-0.828552035243754,-0.908268520183341,-0.996860001458146,-0.956130107562574,-0.807315436870188,-0.688453878809179,-0.629023099778674,-0.626804350694867,-0.579101245393049,-0.490034317886001,-0.530288765549329,-0.360237496483378,-0.346608037825717,-0.428384789771689,-0.425532112378227,-0.468163791202773,-0.453266475925796,-0.380206238237627,-0.291456274885408,0.00907036506024407,0.153903494111951,0.270585282499773,0.387267070887634,0.503948859275453,0.620630647663275,0.744931885054581,0.819027641559249,0.601114785114065,0.683525465369699,0.700800011807901,0.619023259861925,0.560384891218493,0.528846957812972,0.539782221154586,0.503965271658868,0.557056767592785,0.616646028700704,0.659119225447839,0.668945114247551,0.719183932788002,0.73772633584552,0.670212970866867,0.48669072522067,0.0207181993820795,-0.651175372377299,-1.04107650105684,-1.32634424040326,-1.51160978890102,-1.62967893657496,-1.69798471194069,-1.73617889259762,-1.70955390359196,-1.59354502292441,-1.38212993165323,-1.15708538172438,-0.925384584544125,-0.677835579622394,-0.422203988752518,-0.277034405840671,-0.0962063555105241,0.0548270642656685,0.174481032713751,0.236289042905473,0.274483223562412,0.351188549031116,0.390175140075128,0.425358161261187,0.465771091001929,0.48241170913047,0.486849207298084,0.394137192010495,0.338985429070186,0.141675242688909,0.00775788727350827,-0.152784457147564,-0.52510508093389,27,"prev_lose",4890.72195215003,252.39447041912,"norisk",TRUE,"normals","not_trained"
"3","P001",2625990,"RESPONSE REW VAL1_28",1,"1_28",1299,2624507,FALSE,TRUE,TRUE,FALSE,FALSE,FALSE,FALSE,FALSE,FALSE,"unused",FALSE,-1,0,FALSE,4896.69603769499,300.578838801003,-0.237213809445748,0.0322716290240916,-1.66874476865768,-1.50170465906261,-1.25946480373427,-1.05747939606926,-0.796142450412455,-0.551525363922895,-0.330759830084249,-0.208173943203992,0.00411279949297036,0.112039094212366,0.218539050235031,0.249839260524429,0.307922941896908,0.379873805043176,0.407132722358497,0.45000212429917,0.475596979801641,0.487720858723862,0.456341407395756,0.36061823263729,0.240330335879549,0.0788370989939904,-0.0752074802530784,-0.211977513061945,-0.309047785478436,-0.201834660107407,-0.0800411836142235,-0.0916896163042044,-0.0705322589693442,-0.0271081697577219,0.0159197142603622,-0.0355869608994085,0.0778069654907941,0.0431786315756875,0.0867612028647243,0.134622790243957,0.197143969784047,0.207445304816003,0.197857139132414,0.148014525785498,0.0756674574456961,-0.051593650718291,-0.198348054404284,-0.349222992103058,-0.454375850467698,-0.411823412681857,-0.316258720000806,-0.254767673963909,-0.277668334150329,-0.255401602273567,-0.192959663772183,0.0623847764029912,0.171894845810187,0.292848576510331,0.413802307210476,0.534756037910621,0.655709768610766,0.818138729709212,0.723621430955612,0.764509806928602,0.658485297138181,0.593983091630407,0.601431749268898,0.580195150895328,0.614981966887849,0.646757623409494,0.66205114388001,0.647391551719152,0.24651113689872,-0.191137119881917,-0.557547682864654,-0.75216367392988,-0.88766585011943,-1.07483318354617,-1.21096928804538,-1.21794249945162,-1.14955748304719,-1.01857204606395,-0.99876178638712,-1.08933429362961,-0.874670319771427,-0.673556563532198,-0.367923877237992,-0.139630444722146,0.0500726019432252,0.207128340661174,0.345800158399018,0.382568000359223,0.473457471756543,0.526152762496925,0.57480676026323,0.559513239792712,0.591130414236942,0.61173308430085,0.635109190719517,0.61022750456541,0.541208559851317,0.443345877047753,0.28589393313627,0.043020149498273,-0.289686558354277,28,"prev_rew",4890.72195215003,252.39447041912,"norisk",TRUE,"normals","not_trained"
"4","P001",2639397,"RESPONSE REW VAL1_31",1,"1_31",3478,2635736,FALSE,TRUE,TRUE,FALSE,FALSE,FALSE,FALSE,FALSE,FALSE,"unused",FALSE,-1,0,FALSE,4896.69603769499,300.578838801003,-1.35492186273371,-1.11932352292489,0.332804628051015,0.28113947081383,0.135969887901983,0.0432578726143966,-0.0535746766859745,-0.157697401547418,-0.1963670284366,-0.227112551455049,-0.2028647936106,-0.13883803433507,-0.0087242487776178,0.081452053271332,0.242311361847233,0.445643867170265,0.57781791973411,0.718391522400929,0.78780667230856,0.863402623235362,0.931232952368844,0.984958376612419,1.01839809494692,1.06055432753922,1.02648068089507,0.977509718973928,0.893672700021564,0.763558914464111,0.583840238675866,0.513315714226333,0.477181800575787,0.472427338253347,0.452934042731341,0.394929602397567,0.334072484670332,0.190012276300389,0.0334319838146846,-0.0692644023500279,-0.126793396451555,-0.0854295742463249,0.0280435931825868,0.0377109999048806,0.0575212595817156,0.0505480481754688,0.0562534029623993,0.0445257292337129,-0.121855890253734,-0.158052962813365,-0.0747182911100452,0.00861638059323157,0.0919510522965083,0.175285723999825,0.356380445279416,0.458163951286024,0.420286734783918,0.458639397518268,0.4136304875325,0.552302305270345,0.643846680546405,0.653344728970283,0.666338705572402,0.660228599989741,0.655632619744715,0.641369232777397,0.67401654072482,0.700483047653072,0.705554474130341,0.682257608750383,0.700324565575654,0.535661687141804,0.0965078506257273,-0.471174950673653,-0.956130107562574,-1.33981521698351,-1.61145349767227,-1.79180610177018,-1.92540649303075,-2.03824573215,-1.99075517056882,-1.94817236939432,-1.90558956821982,-1.86300676704532,-1.82042396587083,-1.77784116469629,-1.69478766928555,-1.49639550946921,-1.22681749578685,-1.04266132183099,-0.86627076966845,-0.60620168063096,-0.496215118905175,-0.536786530723332,-0.412219617875392,-0.335355810329274,-0.251043345144666,-0.168949629043861,-0.155954098695858,-0.244228615815833,-0.337257595258248,-0.407306673475538,-0.348351340677277,-0.413170510339883,-0.801633194052882,31,"prev_rew",4890.72195215003,252.39447041912,"norisk",TRUE,"normals","not_trained"
"5","P001",2643059,"RESPONSE REW VAL1_32",1,"1_32",1142,2641733,FALSE,TRUE,TRUE,FALSE,FALSE,FALSE,FALSE,FALSE,FALSE,"unused",FALSE,-1,0,FALSE,4896.69603769499,300.578838801003,-1.40018978293872,-1.07550644317431,-1.82144225024672,-1.96883058224237,-2.02777110363152,-1.98053529828696,-1.93795249711242,-1.89536969593793,-1.85278689476343,-1.81020409358893,-1.76762129241444,-1.64613515266017,-1.44821695793515,-1.16738671675634,-1.00082205339351,-0.807790883102432,-0.552951702619629,-0.524424928684987,-0.512380290801472,-0.385436146792314,-0.31998304882005,-0.223467463674511,-0.158014365702247,-0.176873732914595,-0.256431735776763,-0.355007587928694,-0.42157006044286,-0.330759830084249,-0.467529862893115,-0.665157013429221,-0.765951614664959,-0.73996055396895,-0.701449409157182,-0.593047668205542,-0.482427178170096,-0.351204018070742,-0.246605846977055,-0.115699651032526,-0.0554764616149489,0.00427128157038489,0.0744788418650888,0.0947645477741674,-0.0118938903259121,-0.0342398632413832,0.0434163546918111,0.174639514791165,0.270045725394802,0.308715352283984,0.161973058524188,0.266664423397602,0.389079981533537,0.511495539669429,0.633911097805364,0.756326655941299,0.885486916441602,0.993357926715396,0.860549945841897,0.842641471094036,0.9372552713106,0.984482930380175,1.02442041388867,1.10762350453138,1.16800517602638,1.19114355932892,1.20699176707038,1.21301408601214,1.24788014304337,1.23345827399864,1.19225293387082,1.04914361796537,0.653572352738326,0.112356058367195,-0.463250846802919,-0.940440381898521,-1.28640675689476,-1.62223027893647,-1.7769087864932,-1.71691773983692,-1.59677716444691,-1.51865219670726,-1.44052722896765,-1.362402261228,-1.28427729348838,-1.20615232574874,-1.07998943141697,-0.855810952559079,-0.647407020758778,-0.457703974093407,-0.350253125606255,-0.260076823557301,-0.00175103737137465,0.110295791360806,0.191280132919706,0.301425176722909,0.359746581211512,0.420128252706504,0.403487634577963,0.42615057164826,0.458797879595686,0.381617107894736,0.229474313576645,0.00110164002209059,-0.328455236541843,32,"prev_rew",4890.72195215003,252.39447041912,"norisk",TRUE,"normals","not_trained"
"6","P001",2646595,"RESPONSE REW VAL1_33",1,"1_33",1013,2645398,FALSE,TRUE,TRUE,FALSE,FALSE,FALSE,FALSE,FALSE,FALSE,"unused",FALSE,-1,0,FALSE,4896.69603769499,300.578838801003,-0.801094575948224,-0.4981735045761,-0.831880158869463,-1.18117465749142,-1.54631736385484,-1.74172576530714,-1.76756727249348,-1.61865215541399,-1.54052718767438,-1.46240221993473,-1.38427725219512,-1.30615228445547,-1.22802731671586,-1.14373717295057,-0.903989504093141,-0.695268608138011,-0.533616889175038,-0.346608037825717,-0.302708502381851,-0.0635590475630974,0.0808181249616739,0.162911841062479,0.270045725394802,0.343422927237796,0.414739862074402,0.409826917674548,0.39873317225552,0.478291175117688,0.399842546797425,0.270521171627045,0.0914364241484585,-0.115541168955112,-0.21158130786841,-0.254371468770371,-0.285116991788819,-0.326322331916638,-0.325529921529562,-0.339793308496884,-0.351679464302985,-0.35009464352884,-0.392092394043728,-0.456277635396672,-0.468322273280188,-0.462458436415846,-0.476246377150922,-0.443757551280913,-0.175288912140449,-0.173862573443715,-0.116809025574432,0.0294699318793176,0.114733289528417,0.190804686687462,0.0754297343295761,0.178918530881361,0.31204347590969,0.392393889158935,0.483838047827204,0.697154924027363,0.638516555383931,0.634871467603393,0.655315655589886,0.685110286143848,0.729326785742543,0.745333475561425,0.751831240735425,0.768947305096213,0.846762005106818,0.916811083324107,1.00762131368272,0.908728497375959,0.644697356403102,0.214735480377079,-0.0973157300524259,-0.373549990986213,-0.612857927882377,-0.812069899192628,-0.958332437332068,-0.995390115884289,-0.954341830067426,-0.91329354425056,-0.872245258433698,-0.831196972616836,-0.79014868679997,-0.737169270533422,-0.724904756614555,-0.645188271674971,-0.539639208116794,-0.329650455542343,-0.290029936188674,-0.245813436589979,-0.165146059185908,-0.0263157593706492,0.104907400728705,0.16703237507526,0.23708145329255,0.309507762671057,0.286844825600757,0.235972078750644,0.170835944933213,0.121389536779831,0.0610078652848389,-0.00713942800347245,-0.115967089538168,33,"prev_rew",4890.72195215003,252.39447041912,"norisk",TRUE,"normals","not_trained"
"7","P001",2650620,"RESPONSE REW VAL1_34",1,"1_34",1506,2648930,FALSE,TRUE,TRUE,FALSE,FALSE,FALSE,FALSE,FALSE,FALSE,"unused",FALSE,-1,0,FALSE,4896.69603769499,300.578838801003,-0.570114755201631,-0.399968720229359,-0.76962454389154,-0.717246217305988,-0.700973962924938,-0.599862397534375,-0.426403763804005,-0.303897117962458,-0.264118116531374,-0.205717471004065,-0.110232019361723,0.0495971557109816,0.123846008979758,0.206494412351516,0.284546835478244,0.310537896174253,0.262121621524068,0.207445304816003,0.138981047372862,0.0872366490969679,0.0381072050984188,-0.0366963354413103,-0.0629251192534393,-0.0653815914533664,-0.110232019361723,-0.0729094901305658,-0.0547632922665853,-0.0347153094736268,-0.035666201938114,0.0331150196598555,0.0962701275096073,0.13842636010191,0.423535617370918,0.504123753736283,0.482094744975641,0.492713044162426,0.495724203633305,0.46252220841493,0.450636052608829,0.422426242829016,0.376307958301343,0.188189732410121,0.193102676809975,0.181375003081288,0.20221539626132,0.156810281082014,0.100152938406265,0.181295762042579,0.348724516732086,0.443388437605647,0.542089731401909,0.640791025198135,0.739492318994396,0.847035288689085,1.00880992926333,0.92362581265294,0.994784265412131,1.05793937326188,1.16265640591363,1.15679256904928,1.17806878794221,1.19732436034809,1.22490024181824,1.21951185118615,1.17291812042623,1.17624624405194,1.1336938062661,1.13615027846602,1.12656211278244,0.970140302374147,0.546279986328589,0.0435748367692257,-0.410793279178661,-0.839962744817612,-1.40352501210421,-1.64568562639384,-1.8578931280521,-2.02976694100832,-2.06037600924171,-1.97039823889263,-1.91032380521557,-1.85024937153851,-1.79017493786149,-1.73010050418443,-1.67453193910188,-1.60693675846595,-1.37071922207937,-1.21604071452265,-1.08941353466832,-0.913815392892853,-0.795825486257626,-0.619831139288624,-0.50675417705325,-0.338683933954983,-0.256590217854178,-0.231946254816194,-0.237096922332172,-0.342725226929055,-0.308730821323607,-0.318002022852366,-0.417449526430079,-0.640909255584775,-0.542947521482825,34,"prev_rew",4890.72195215003,252.39447041912,"norisk",TRUE,"normals","not_trained"
"8","P001",2764102,"RESPONSE REW VAL2_8",2,"2_8",888,2763046,FALSE,TRUE,TRUE,FALSE,FALSE,FALSE,FALSE,TRUE,FALSE,"norisk",FALSE,-1,0,FALSE,4896.69603769499,300.578838801003,-0.799798858341388,-0.352343294891396,-0.232183977932318,-0.724587792459725,-1.0680362938229,-1.41394209713513,-1.7468789220704,-2.0798157470057,-2.27824153104711,-2.3189174912514,-2.26978804725285,-2.24791752056962,-2.18087960182322,-2.08214526759387,-1.8190650190855,-1.5231789805523,-1.08767023181676,-0.768962774135835,-0.570701695290071,-0.374976329682944,-0.280204047388965,-0.228855854306609,-0.206826845545967,-0.24993397060276,-0.229648264693682,-0.236462994022514,-0.247873703596371,-0.261344680176617,-0.268000927428035,-0.315545550652439,-0.383534361863336,-0.479099054544387,-0.662304336035755,-0.862942646042741,-1.09210772998437,-1.28022595587559,-1.46580846852818,-1.62096242231715,-1.73126594819777,-1.77469003740939,-1.84077706369131,-1.85662527143278,-1.84426366939444,-1.83063421073677,-1.80020565187316,-1.73934853414592,-1.61684188830437,-1.43648928420647,-1.28688220312701,-1.14298047683448,-1.09274165829403,-0.954069840556181,-0.803353384934822,-0.642177112204091,-0.528070016465525,-0.450255316454916,-0.421411578365446,-0.27259690767306,-0.271646015208573,-0.309364749633265,-0.221565678745533,-0.134559018244874,-0.0641929758727556,-0.0107845157840104,0.0386618923693679,0.0903270496065568,0.153244434340181,0.222976548402642,0.280980988736416,0.233119401357183,-0.144384907044586,-0.649784251919996,-1.14361440514414,-1.66945793800605,-2.025250201802,-2.33381480652838,-2.6114754061589,-2.79800881127597,-2.91465162025318,-2.95963523505396,-2.93293332803678,-2.90325020278808,-2.87356707753942,-2.84388395229072,-2.81420082704206,-2.72801496948307,-2.52351785319375,-2.16645773277848,-1.93824354130134,-1.72952264534621,-1.58134190296348,-1.34472816138337,-1.27895809925627,-1.15660993549214,-1.03600507457957,-0.943293059291982,-0.872610052765038,-0.715237349892261,-0.795904727296331,-0.911755125886461,-1.11825727275779,-1.28339559742388,-1.47506646321716,8,"prev_rew",4890.72195215003,252.39447041912,"norisk",TRUE,"normals","trained"
"9","P001",2767635,"RESPONSE REW VAL2_9",2,"2_9",1056,2766411,FALSE,TRUE,TRUE,FALSE,FALSE,FALSE,FALSE,TRUE,FALSE,"norisk",FALSE,-1,0,FALSE,4896.69603769499,300.578838801003,-2.63482012298346,-2.32530720046354,-1.50321023879805,-1.91415426553431,-2.23159386659591,-2.52098213995512,-2.73738941666486,-2.8868380156669,-2.95944397248168,-2.94302559062134,-2.91334246537264,-2.88365934012398,-2.85397621487528,-2.82429308962662,-2.78947478370991,-2.62042964353283,-2.24514408421487,-2.02944997685349,-1.78689315737032,-1.63514656824576,-1.41755067595541,-1.30336433917813,-1.19123826940725,-1.0697617570689,-0.976415813471653,-0.934338821918056,-0.723795382072653,-0.762702732077955,-0.864052020584643,-1.03869926989562,-1.24163557002512,-1.34908641851227,-1.46343123736696,-1.48799595936624,-1.69853939921164,-1.80305832926662,-1.88523128640613,-1.95409174904281,-1.95646898020403,-1.93547010494658,-1.85583286104571,-1.69410190104403,-1.51002496812688,-1.34163776087378,-1.20320366625206,-1.00113901754834,-0.775194494301567,-0.691059794184771,-0.539658189810497,-0.388256585436187,-0.236854981061913,-0.0881786055663349,0.0312132347308811,0.0923080755742403,0.174639514791165,0.122419670283027,0.210218741170759,0.334072484670332,0.460461941408537,0.528926198851681,0.57781791973411,0.569814574824667,0.554204090199323,0.562286676147471,0.543981996206076,0.511730893452188,0.483996529904619,0.476230908111299,0.474487605259736,0.366878274695169,0.0356507328984917,-0.440904873887452,-0.903434816822192,-1.3515428907122,-1.70701819035332,-2.0954577620967,-2.37042416641117,-2.61813165341031,-2.705659507547,-2.69853298787688,-2.69104457356605,-2.68355615925519,-2.67606774494436,-2.66812185659566,-2.6449151244934,-2.40180361773928,-2.15504702320462,-1.9497334919139,-1.73094898404294,-1.4994859099788,-1.33094022064829,-1.21065232389055,-1.0784782713267,-0.869915857448988,-0.824193778114853,-0.737900286962561,-0.722131320259798,-0.860961620075057,-0.897174774764313,-0.934972750227714,-0.935765160614786,-0.918252891060464,-1.1936320091182,9,"prev_rew",4890.72195215003,252.39447041912,"norisk",TRUE,"normals","trained"
"10","P001",2770946,"RESPONSE LOSE INV 2_10",2,"2_10",835,2769943,FALSE,FALSE,TRUE,FALSE,FALSE,FALSE,FALSE,TRUE,FALSE,"norisk",FALSE,-1,0,FALSE,4896.69603769499,300.578838801003,-2.39400998190338,-2.03731955707374,0.466563501389002,0.315213117457984,-0.064034493795341,-0.547246347832698,-1.00636892610302,-1.42190893308431,-1.80052261602799,-2.16376353746243,-2.42969646336426,-2.65849965266518,-2.70437395103931,-2.69688553672849,-2.68939712241766,-2.68190870810684,-2.67442029379601,-2.66233344848635,-2.60783031837836,-2.34966301426985,-2.12010172513469,-1.89371007754781,-1.66660526061258,-1.46564998645077,-1.30574157033936,-1.18291796034298,-1.02570373954762,-0.856444880868738,-0.809217221799167,-0.724587792459725,-0.741386892665681,-0.879583264171281,-0.911755125886461,-0.936161365808325,-0.925067620389296,-0.918411373137879,-0.894797543603091,-0.904306468247974,-0.863418092274984,-0.904623432402803,-0.930139046866565,-0.963420283123646,-1.00858767518683,-0.968333227523504,-0.923324317537733,-0.868489518752253,-0.654063268010192,-0.373019420553119,-0.307676570982552,-0.125050093599995,-0.0540501229182181,-0.0191840658869879,0.103639544109389,0.193498882003513,0.291916252078026,0.358954170824435,0.419494324396845,0.31331133252901,0.427735392422408,0.472268856175933,0.518862586935849,0.543585791012538,0.506817949052334,0.489701884691546,0.482253227053055,0.457530022976366,0.412362630913184,0.408083614822988,0.358795688747021,0.166873892997846,-0.329333491387514,-0.847411402456102,-1.34567905384785,-1.7315829123526,-2.06851580893621,-2.39815852995874,-2.70640617053029,-2.89087930864098,-2.90564500897384,-2.86415059209538,-2.82248953097241,-2.78082846984944,-2.72699625725327,-2.6114754061589,-2.37898219859156,-2.01035288652502,-1.75995120420982,-1.50067452555941,-1.2727772982371,-1.06310550981748,-0.867063180055522,-0.728074398162849,-0.609212840101839,-0.565313304657973,-0.463884775112577,-0.438210678571401,-0.429652646391009,-0.494471816053611,-0.577674906696318,-0.646614610371702,-0.718090027285726,-0.784494017722474,-1.33901950488649,10,"prev_rew",4890.72195215003,252.39447041912,"norisk",TRUE,"normals","trained"
"11","P001",2774154,"RESPONSE LOSE INV 2_11",2,"2_11",728,2773258,FALSE,FALSE,FALSE,FALSE,FALSE,FALSE,FALSE,TRUE,FALSE,"norisk",FALSE,-1,0,FALSE,4896.69603769499,300.578838801003,-2.11072226416508,-1.60293333289089,0.406974240281083,0.403012188345716,0.347701943327993,0.102847133722316,-0.414279884881785,-0.930931457253638,-1.41667902452963,-1.78277262335754,-2.12113185863788,-2.45093306173783,-2.76029007685128,-2.89347351741034,-2.89914588343866,-2.85748482231569,-2.81582376119276,-2.77416270006979,-2.71936054995263,-2.56900220941177,-2.33254694990906,-1.96233281706837,-1.72302488017221,-1.45915222127677,-1.23759427705104,-1.03029971979264,-0.84329086844332,-0.70335119408616,-0.602081146618178,-0.550257507303578,-0.457070045783749,-0.435358001177936,-0.431237467165154,-0.51301421911113,-0.582746333173587,-0.664206120964734,-0.728708326472507,-0.790357854586819,-0.82189578799234,-0.800817671696185,-0.68211459571259,-0.590670437044321,-0.482268696092681,-0.503029848234003,-0.445500854132477,-0.389873644959924,-0.32442054698766,-0.254688432925203,-0.153418385457222,-0.00333585814552,0.195400666932487,0.417751021545282,0.34817738956024,0.391126032539615,0.456579130511879,0.560860337450737,0.63138486190027,0.69984911934341,0.77290935703158,0.836143705920037,0.85833119675809,0.932659291065575,0.933768665607477,0.965623563167827,0.974657041580467,0.981154806754466,0.986384715309153,0.965465081090413,0.953103479052068,0.668469668015304,0.117902931076708,-0.507784310556443,-1.05010997946948,-1.49005622637263,-1.77231280624817,-2.07105152217484,-2.32081927618038,-2.32102000173837,-2.3796152985977,-2.43828679938271,-2.49695830016777,-2.55562980095283,-2.60806804149448,-2.54855802142527,-2.28230813136861,-2.19244879347449,-1.98246004090004,-1.67072579462536,-1.31826165445511,-1.08592692896519,-0.891944866209626,-0.745190462523633,-0.590353472889492,-0.471491914828482,-0.348034376522448,-0.277668334150329,-0.295893773053019,-0.377353560844165,-0.459288794867552,-0.503505294466247,-0.575297675535096,-0.603665967392327,-0.978687389914594,11,"prev_lose",4890.72195215003,252.39447041912,"norisk",TRUE,"normals","trained"
"12","P001",2777448,"RESPONSE REW VAL2_12",2,"2_12",823,2776456,FALSE,TRUE,FALSE,FALSE,FALSE,FALSE,FALSE,TRUE,FALSE,"norisk",FALSE,-1,0,FALSE,4896.69603769499,300.578838801003,-2.2080930128942,-1.82301937771615,0.954529817748803,0.727900447045808,0.192389507461608,-0.44027094557779,-0.990520718361557,-1.44267008522564,-1.74077487284265,-2.03697787553068,-2.30655588921305,-2.31551095489051,-2.37257471850349,-2.43124621928851,-2.48991772007357,-2.54858922085863,-2.60719031584272,-2.56773435279245,-2.3092500845291,-2.2022746822742,-2.01669216962161,-1.70543336957918,-1.35851610211844,-1.11889120106745,-0.907634591873679,-0.757076618329734,-0.613016409959792,-0.481634767783023,-0.362139281412356,-0.283215206859845,-0.293833506046626,-0.361663835180112,-0.454058886312869,-0.49478878020844,-0.568958392438511,-0.597960612605397,-0.526802159846205,-0.412219617875392,-0.379730792005383,-0.319190638432977,-0.306353590162389,-0.264038875492668,-0.161342489327956,-0.193831315197964,-0.185748729249816,-0.0847956459366668,-0.0803581477690562,-0.347400448212789,-0.138996516412485,-0.0082488025453742,0.0264547728607522,0.0574827639351447,0.107477110122745,0.157471456310348,0.207465802497952,0.257460148685552,0.307394501657712,0.487641617685157,0.541525524006146,0.574331314030987,0.633445128906662,0.713637060078489,0.727108036658736,0.738201782077764,0.75769507759977,0.779407122205579,0.774018731573481,0.76815489470914,0.720293307329907,0.563079086534544,0.226146189950936,-0.306512072239803,-0.916034141976657,-1.43442901720007,-1.84030161745907,-2.09339749509031,-2.27977241812998,-2.23967645254406,-2.35901345683732,-2.63017629129383,-2.60640397968163,-2.52573660227756,-2.38246880429469,-2.13555372768261,-1.95948013967491,-1.72746237833982,-1.44108526445149,-1.21524830413557,-1.04662337376635,-0.872610052765038,-0.706362353557039,-0.604933824011643,-0.494154851898782,-0.381632576934361,-0.262771018873352,-0.26340494718301,-0.248666113983444,-0.265306732111984,-0.348985268986935,-0.367210707889624,-0.457070045783749,-0.575614639689929,-0.974263098586767,12,"prev_lose",4890.72195215003,252.39447041912,"norisk",TRUE,"normals","trained"
"13","P001",2781075,"RESPONSE REW VAL2_13",2,"2_13",1151,2779756,FALSE,TRUE,TRUE,FALSE,FALSE,FALSE,FALSE,TRUE,FALSE,"norisk",FALSE,-1,0,FALSE,4896.69603769499,300.578838801003,-1.77647756781745,-1.31310008220903,-1.99886293591245,-2.20187847708066,-2.28151572098154,-2.2498193054986,-2.53778124016107,-2.64198320606123,-2.56527788059252,-2.45235940043456,-2.27612733034944,-2.01954484701507,-1.84442215147185,-1.56438432068011,-1.32079736769375,-1.11009544577093,-0.961993944426915,-0.778867903974252,-0.647723984913607,-0.543442777974746,-0.438844606881059,-0.311028811446119,-0.257303387202545,-0.250330175796298,-0.259680618363763,-0.303659394846338,-0.352471874690058,-0.414676090075319,-0.517847922472275,-0.637898096113895,-0.746458319142953,-0.885605583113041,-0.901533031893214,-0.942104443711375,-0.88592254726787,-0.813020791657115,-0.709373513027916,-0.607786501405108,-0.505407079395225,-0.386862485489045,-0.311345775600948,-0.272200702479522,-0.312930596375097,-0.311900462871901,-0.28036252946638,-0.19660475155272,-0.118314605309872,-0.0809920760787143,-0.00484143788095989,0.0694866564265256,0.0587891162010354,0.0856518283228226,0.111088201747879,0.219172978544689,0.271075858897998,0.330189673773674,0.373376039869172,0.415849236616308,0.514345847729529,0.589545593462797,0.631860308132514,0.704841304781974,0.75294061527733,0.777188373121776,0.792323411514876,0.807458449907981,0.843750845635942,0.863561105312777,0.928459516014088,0.836143705920037,0.511255447219944,-0.113322419871308,-0.656123535016585,-1.11247267693216,-1.47745690121816,-1.77350142182878,-1.9637591557651,-2.05718434040106,-2.03780558105289,-1.98552137482774,-1.94313260958038,-1.90074384433297,-1.85063928571839,-1.73364317935899,-1.42095804061983,-1.16231529027907,-1.09488116633912,-0.903117852667363,-0.722289802337213,-0.589640303541128,-0.529179391007427,-0.443123622971255,-0.314673899226657,-0.214117021107043,-0.0580121748535851,-0.110548983516552,-0.182182882507987,-0.330522106968125,-0.444946166861524,-0.627913725236772,-0.857475014371934,-1.01587785074791,-0.669812424453278,13,"prev_rew",4890.72195215003,252.39447041912,"norisk",TRUE,"normals","trained"
"14","P001",2784396,"RESPONSE REW VAL2_14",2,"2_14",840,2783387,FALSE,TRUE,TRUE,FALSE,FALSE,FALSE,FALSE,TRUE,FALSE,"norisk",FALSE,-1,0,FALSE,4896.69603769499,300.578838801003,-1.32044774099641,-0.980996366257812,0.922199473956205,0.738518746232593,0.263864924375628,-0.363407138031672,-0.844717207140051,-1.28196925872715,-1.61303831844642,-1.86153821583264,-2.02303145271819,-2.06299834883933,-2.01010685867121,-1.96771809342384,-1.92532932817647,-1.88294056292911,-1.84130441453406,-1.59132627384061,-1.28719916728184,-1.13743360412496,-1.01175731673513,-0.838377924043466,-0.658183802022974,-0.55707223663241,-0.497482975524491,-0.394311143127535,-0.281788868163111,-0.1326572333159,-0.0635590475630974,-0.119978667122726,-0.257541110318665,-0.372916062676551,-0.511112434182152,-0.726172613233874,-0.940281899821106,-1.0093800855739,-0.946304218762862,-0.937270740350226,-0.928871190247249,-0.944719397988717,-0.958190374568963,-0.966272960517111,-0.992897949522779,-0.959775195343112,-0.91952074767978,-0.833148015488783,-0.790833300819062,-0.694793161905768,-0.536152602413674,-0.334246435787372,-0.0229876357449404,0.0768560730263069,0.157523450430377,0.247382788324502,0.372108183249856,0.457846987131195,0.374643896488489,0.460382700369832,0.52773758327107,0.603650498352701,0.663873687770279,0.769105787173627,0.803337915895196,0.880518687596146,0.952944996974654,1.01332666846965,1.08654538823523,1.20762569538005,1.30762788622871,1.18527972246458,0.654206281047985,0.0977757072450435,-0.379413827850554,-0.785761874341794,-1.0892550525909,-1.37927725425976,-1.56913878300255,-1.60665722181278,-1.61849308441353,-1.56074361893493,-1.50299415345632,-1.44524468797775,-1.38749522249915,-1.24489731831581,-0.932516278027787,-0.710958333802065,-0.538212869420063,-0.309047785478436,-0.226637105222802,-0.120137149200141,-0.0331304886994814,0.0581551878913737,0.0392958206790296,0.0657623276072786,0.0960324043934837,0.030896270576052,-0.131706340851412,-0.296210737207848,-0.552317774309971,-0.614442748656523,-0.681639149480347,-0.704302086550647,-0.334319073406188,14,"prev_rew",4890.72195215003,252.39447041912,"norisk",TRUE,"normals","trained"
"15","P001",2812311,"RESPONSE REW VAL2_21",2,"2_21",850,2811292,FALSE,TRUE,TRUE,FALSE,FALSE,FALSE,FALSE,TRUE,FALSE,"norisk",FALSE,-1,0,FALSE,4896.69603769499,300.578838801003,-1.01799019057153,-0.642364942814371,1.35303300140801,1.21483662990241,0.891136986782931,0.422980930099965,-0.0802789067303471,-0.495422708518099,-0.813733961005483,-1.10340656985651,-1.16248005489408,-1.19034614906865,-1.21821224324322,-1.2460783374178,-1.2739444315924,-1.30181052576697,-1.32967661994155,-1.30771834039447,-1.13584878335082,-0.900502898390022,-0.657074427481072,-0.39145846573407,-0.146445174050975,-0.0203726814675988,-0.0427978954217753,-0.00222648360361826,0.106809185657683,0.239854889647306,0.25395979453721,0.313390573567715,0.319809097703009,0.324405077948038,0.287874959103953,0.156255593811061,0.000863916905966981,-0.0973949710911313,-0.232183977932318,-0.25746186927996,-0.248507631906029,-0.200091357255844,-0.134717500322289,-0.0553972205762435,0.0147310986797514,0.126698686373223,0.217667398809249,0.258397292704821,0.275909562259143,0.299439980174236,0.370740232686926,0.441640109425049,0.512539986163216,0.583439862901343,0.654339739639506,0.836467009357961,0.831937591585451,0.806428316404784,0.739311156619666,0.683366983292284,0.78059573778619,0.832815582294328,0.971328917954758,1.0106324731536,1.00904765237945,1.01950746948882,1.0084929651085,1.00770055472143,0.98440368934147,0.985037617651128,0.96166151123246,0.861342356228969,0.504757682045941,0.0385034102919533,-0.436229652603717,-0.819518556831119,-1.07396153212039,-1.2230931669676,-1.32586879417102,-1.32468017859041,-1.22491571085787,-1.16176060300812,-1.29200049258416,-1.34238188819067,-1.24936597357901,-1.15635005896735,-1.06333414435569,-0.970318229744027,-0.862055657641733,-0.83259332821783,-0.742813231362415,-0.655727329823047,-0.641701665971848,-0.542491885510259,-0.447878085293695,-0.405008683353025,-0.314911622342781,-0.247715221518957,-0.235591342596732,-0.256431735776763,-0.262454054718523,-0.259522136286349,-0.288999802685481,-0.253341335267178,-0.303471836420044,21,"prev_rew",4890.72195215003,252.39447041912,"norisk",TRUE,"normals","trained"
"16","P001",2815627,"RESPONSE REW VAL2_22",2,"2_22",834,2814624,FALSE,TRUE,TRUE,FALSE,FALSE,FALSE,FALSE,TRUE,FALSE,"norisk",FALSE,-1,0,FALSE,4896.69603769499,300.578838801003,-1.00260893650459,-0.843492581059114,0.938919333123455,0.789312252043997,0.347622702289287,-0.110707465593967,-0.579338968509172,-0.909060930570414,-1.12927177713811,-1.26485319436637,-1.34845249020261,-1.29084425506237,-1.1917137156395,-1.19203067979432,-1.32893618921777,-1.31261679551492,-1.21960088090327,-1.1265849662916,-1.03356905167995,-0.940553137068284,-0.835511329765077,-0.825461634734169,-0.703747399279694,-0.64083001454607,-0.627596761081943,-0.498750832143807,-0.439320053113303,-0.379017622657016,-0.290743105537041,-0.247239775286713,-0.225686212758315,-0.263167224066886,-0.260948474983083,-0.267683963273206,-0.288128151259699,-0.232817906241976,-0.228855854306609,-0.183054533933765,-0.148584682096073,-0.195733100126942,-0.232263218971023,-0.249141560215687,-0.232025495854903,-0.116967507651846,0.0129877958281915,0.106492221502854,0.169488847275187,0.329477093578029,0.412661625910556,0.495879445370831,0.579097264831146,0.662315084291461,0.827172383117679,1.10680137875479,1.02876876588774,1.03052197386914,1.06190142519725,1.11158555646675,1.15247393243974,1.17402749496813,1.22458327766342,1.22101743092158,1.25049509732072,1.21570828132819,1.2373410848953,1.22355314416022,1.19320382633531,1.19684891411585,1.15913017969115,1.03424630268839,0.596122599675505,0.100073697367556,-0.45397964527416,-0.866112287591035,-1.18474050423325,-1.44417566496108,-1.61969456569783,-1.69124922365056,-1.6668429837287,-1.6872871717152,-1.50986648604946,-1.43244799123239,-1.36620248287306,-1.22428178254821,-1.04052181378589,-0.794319906522186,-0.676884687157907,-0.569037633477217,-0.474503074299362,-0.353502008193254,-0.222041124977777,-0.146524415089684,-0.0329720066220669,0.0408014004144695,0.167587062346213,0.25847653374353,0.254593722846868,0.16378349248826,0.190249999416509,0.137000021405179,0.0485670222077853,-0.073543418440224,-0.3239583075952,22,"prev_rew",4890.72195215003,252.39447041912,"norisk",TRUE,"normals","trained"
"17","P001",2819097,"RESPONSE REW VAL2_23",2,"2_23",989,2817939,FALSE,TRUE,TRUE,FALSE,FALSE,FALSE,FALSE,TRUE,FALSE,"norisk",FALSE,-1,0,FALSE,4896.69603769499,300.578838801003,-0.910736312531663,-0.610001043000144,-0.120612595432384,-0.649229564649047,-0.985845497077826,-1.30447371372004,-1.51953389277176,-1.67373695409624,-1.68023471927024,-1.68712868963778,-1.61438541610444,-1.47198926954735,-1.40915112585243,-1.31493353082941,-1.17404296400776,-0.934893509189005,-0.729025290627336,-0.635917070146212,-0.526881400884914,-0.43250532378447,-0.300252030181924,-0.181945159391863,-0.107854788200501,0.00514293299616664,0.0799464735358921,0.205702001964443,0.288271164297488,0.196589282513098,0.179552459191019,0.176145094526605,0.0992020459417779,0.0201194893118528,-0.129329109690191,-0.190820155727084,-0.278539985576111,-0.322360279981271,-0.35334352611584,-0.364833476728403,-0.372678339560431,-0.412219617875392,-0.40191828284344,-0.357701783244745,-0.285196232827528,-0.203498721920262,-0.210392692287799,-0.176002081488813,-0.0492164195570694,0.114891771605831,0.237109401376744,0.287002321275185,0.348652506991501,0.410302692707774,0.47195287842409,0.581910505662694,0.704762063743268,0.731149329632812,0.833449510603986,0.892167120286124,0.958571110722875,0.987097884657517,1.00762131368272,1.05738468599093,1.08797172693196,1.11245720789253,1.1704616482263,1.16570718590386,1.16111120565883,1.13884447378207,1.14193487429166,0.924972910310965,0.477815728885445,-0.117125989729261,-0.577754147735027,-1.07221822926882,-1.45653726699942,-1.76018892732595,-1.96677031523598,-2.09054837909183,-2.07563681823489,-2.06970115990472,-2.06376550157461,-2.05782984324444,-2.06256738894065,-1.98356941544194,-1.73530724117184,-1.51541335875898,-1.23703958978009,-0.972453761536285,-0.76563465051013,-0.562777591419337,-0.444153756474451,-0.339793308496884,-0.226320141067973,-0.140581337186634,-0.0763168547949801,-0.00698094592605792,-0.110707465593967,-0.189156093914234,-0.290267659304797,-0.35659240870284,-0.447957326332404,-0.529575596200962,-0.634319042532279,23,"prev_rew",4890.72195215003,252.39447041912,"norisk",TRUE,"normals","trained"
"18","P001",2822529,"RESPONSE LOSE INV 2_24",2,"2_24",956,2821405,FALSE,FALSE,TRUE,FALSE,FALSE,FALSE,FALSE,TRUE,FALSE,"norisk",FALSE,-1,0,FALSE,4896.69603769499,300.578838801003,-1.55367163860994,-1.08780835839798,0.095477717122531,-0.415785464617224,-0.896223882299822,-1.3418754839899,-1.64513093912289,-1.90781498243772,-2.07001159483541,-2.07777365523371,-2.07183799690359,-2.06590233857347,-2.05996668024331,-2.05403339617649,-2.0533807705431,-1.81898577804679,-1.59029614033741,-1.34686766942847,-1.05106087193397,-0.83885337027571,-0.64399965609436,-0.468797719512435,-0.384406013289118,-0.265227491073279,-0.170059003585762,-0.0946215347363751,-0.0329720066220669,-0.0424016902282372,-0.17972641030806,-0.246051159706102,-0.336306702793761,-0.417845731623613,-0.499622483569589,-0.532507514633136,-0.547563311987528,-0.355166070006109,-0.35928660401889,-0.294784398511117,-0.217682867848875,-0.126714155412849,-0.0446996803507533,0.0706752720071364,0.163466528333428,0.243341495350429,0.267113806962631,0.242945290156891,0.233911811744255,0.205305796770905,0.229474313576645,0.265449745149777,0.271630546168947,0.196034595242145,0.246431895860014,0.300236561142298,0.41814722673882,0.507372636323283,0.554758777470272,0.589387111385378,0.654998691435057,0.690181712621117,0.750484143077403,0.80024751538561,0.803417156933905,0.771720741450969,0.770769848986482,0.772592392876751,0.782180558560339,0.830042145939572,0.881311097983219,0.773067839108994,0.344611542818407,-0.206668363468552,-0.714524180543893,-1.10843138395808,-1.44488883430944,-1.73063201988811,-1.93063640158544,-2.06463299803955,-2.08769214030338,-2.09022785354202,-1.98428258479031,-1.83650664323923,-1.60696093369812,-1.37662469406577,-1.14628845443341,-0.915952214801053,-0.685708109664558,-0.518006404549693,-0.311741980794487,-0.150961913257295,-0.00301889399069093,0.151976577720865,0.307526736703374,0.478687380311227,0.642716330435418,0.690181712621117,0.609514335217046,0.396435182133007,0.214576998299664,-0.0345568273962123,-0.305006492504363,-0.477593474808947,-0.646468182333654,24,"prev_rew",4890.72195215003,252.39447041912,"norisk",TRUE,"normals","trained"
"19","P001",2825537,"RESPONSE REW VAL2_25",2,"2_25",532,2824837,FALSE,TRUE,FALSE,FALSE,FALSE,FALSE,FALSE,TRUE,FALSE,"norisk",FALSE,-1,0,FALSE,4896.69603769499,300.578838801003,-1.0088904322654,-0.588347076481961,0.800643720579148,0.776316721695994,0.7666493149737,0.773305562225114,0.784637030760266,0.843354640442404,0.883529847067026,0.724651564458809,0.254197517653334,-0.291139310730579,-0.782433750716085,-1.16794140402729,-1.49481068869507,-1.76494338964839,-1.95916317552008,-2.07374571749089,-2.09149571016133,-2.08095665201326,-1.96624517547099,-1.80044337498928,-1.57010713535692,-1.33977089572456,-1.10943465609221,-0.879098416459855,-0.645301089424991,-0.496056636827757,-0.280124806350256,-0.132181787083656,0.0264587724084378,0.173213176094431,0.336370474792844,0.506897190091039,0.659277707525253,0.687566758343775,0.573935108837449,0.369176264817682,0.178918530881361,-0.0788525680336163,-0.341774334464568,-0.492253066969808,-0.625140288882016,-0.74416032902044,-0.895272989835335,-0.946224977724156,-1.05280417478553,-1.06682983863673,-1.01211743195064,-0.876604010333148,-0.740612788789217,-0.604621567245246,-0.468630345701311,-0.33263912415734,-0.144238978002999,-0.0150635318742064,0.108473247470537,0.209743294938515,0.319175169393351,0.432965300977092,0.464661716460028,0.492475321046306,0.523775531335703,0.569339128592424,0.566882656392496,0.550083556186541,0.535423964025681,0.522824638871216,0.487245412491619,0.397306833558789,0.012829313750777,-0.504693910046858,-0.904068745131851,-1.27483756524349,-1.49607854531439,-1.62761866956857,-1.78610074698325,-1.9313495709338,-2.18492089479729,-2.43342079218351,-2.46923774167922,-2.4894442065496,-2.33603355561219,-2.09585396729024,-1.89061967703823,-1.65448138169036,-1.430387724226,-1.18386885280747,-0.971740592187918,-0.756046484826541,-0.597168202218324,-0.47513700260902,-0.342091298619397,-0.230123710925925,-0.130834689425631,-0.11443179441321,-0.190503191572255,-0.416736357081712,-0.648120190107142,-0.824906947463216,-0.974038582310431,-1.02094927722518,-0.954710372285733,25,"prev_lose",4890.72195215003,252.39447041912,"norisk",TRUE,"normals","trained"
"20","P001",2828564,"RESPONSE REW VAL2_26",2,"2_26",544,2827852,FALSE,TRUE,TRUE,FALSE,FALSE,FALSE,FALSE,TRUE,FALSE,"norisk",FALSE,-1,0,FALSE,4896.69603769499,300.578838801003,-1.69900036618432,-1.2765917978935,0.550083556186541,0.573380421566496,0.55816614213469,0.539623739077171,0.534552312599902,0.50063714803316,0.471793409943689,0.211882802983613,-0.262295572641105,-0.748360104071927,-1.10557870656461,-1.407645546117,-1.57563654817655,-1.70733515450815,-1.87152258670976,-2.02445779141493,-2.36519425785649,-2.45568752406027,-2.4927723301753,-2.437620567235,-2.1742233545718,-2.01003592237019,-1.76169450706139,-1.5361745109003,-1.29464782492033,-1.07118809576563,-0.843766314675564,-0.672288706912882,-0.525534303226889,-0.400967390378949,-0.280837975698623,-0.167840254501959,-0.118710810503406,-0.125525539832238,-0.314119211955708,-0.544235188361822,-0.750895817310564,-0.912389054196123,-1.01017249596098,-1.05010997946948,-1.04186891144391,-0.996067591071073,-0.986717148503604,-0.938855561124372,-0.954862250943254,-0.911121197576803,-0.852482828933371,-0.754699387168516,-0.65897621241005,-0.563886965961243,-0.474027628067118,-0.350887053915913,-0.231074603390416,-0.141373747573706,-0.0413715567250445,0.037235553672637,0.112831504599439,0.227414046570252,0.309190798516228,0.390492104229957,0.434550121751237,0.487800099762571,0.484471976136863,0.488275545994815,0.50634250282009,0.518070176548773,0.487166171452913,0.347701943327993,-0.0489786964409494,-0.522047697523766,-0.955337697175498,-1.25946480373427,-1.52412987301678,-1.74378603231353,-1.89054043599952,-2.1677300747396,-2.19433114192226,-2.19507869889122,-2.19582625586015,-2.19657381282907,-2.197321369798,-2.057884053724,-1.85567437896829,-1.65836419258702,-1.38577501943377,-1.15042913447297,-0.972929207768529,-0.83283105133395,-0.680529774938445,-0.551525363922895,-0.44597630036472,-0.343596878354837,-0.267683963273206,-0.330284383852005,-0.535043227871768,-0.89638236437724,-1.20019250678118,-1.3623196719764,-1.51097586059137,-1.69116998261185,-0.954528778238695,26,"prev_rew",4890.72195215003,252.39447041912,"norisk",TRUE,"normals","trained"
"21","P001",2831534,"RESPONSE REW VAL2_27",2,"2_27",498,2830867,FALSE,TRUE,TRUE,FALSE,FALSE,FALSE,FALSE,TRUE,FALSE,"norisk",FALSE,-1,0,FALSE,4896.69603769499,300.578838801003,-1.7080533555855,-1.26565017635181,0.414581379996988,0.451032257802367,0.492237597930182,0.483045637440132,0.498576881026771,0.513949642535991,0.507293395284577,0.466088055156758,0.210614946364297,-0.243119241273932,-0.705728425247378,-1.08133094872017,-1.37452279193733,-1.62207179685906,-1.79576815370555,-2.01209618937658,-2.19571561742875,-2.19463016470986,-2.19537772167879,-2.19612527864771,-2.19687283561667,-2.18540082637134,-1.97374352664223,-1.75551370604221,-1.56739548015099,-1.27214336992744,-1.08022157417827,-0.92253190715066,-0.766110096742373,-0.622683816682086,-0.507150382246785,-0.405404888546563,-0.30777992885912,-0.27259690767306,-0.385911593024557,-0.672288706912882,-1.04519703506962,-1.26723042552759,-1.42317678970363,-1.5729423528605,-1.75868334759051,-1.89418552378006,-1.94410737816568,-1.99212744762233,-2.13872336923091,-2.29546214379403,-2.38880808739127,-2.39213621101698,-2.53461159861278,-2.40814290083586,-2.37692193158517,-2.20924789368044,-2.05425242196889,-1.93713416675944,-1.67341998994141,-1.40003840640109,-1.20463000494879,-1.11477066705467,-1.0612037248885,-1.02094927722518,-0.903672539938312,-0.832672569256536,-0.765317686355297,-0.712226190421381,-0.68068825701586,-0.628706135623845,-0.591462847431397,-0.670703886138737,-1.03077516602488,-1.50178390010131,-1.86597571400025,-2.04727921056264,-2.16931041017194,-2.2141608380803,-2.19324120386156,-2.12858051627637,-2.05615420689786,-1.95108058957193,-1.87073017632269,-1.76946012885471,-1.64473473392935,-1.45392231272208,-1.31905406484219,-1.14408985137638,-0.984498399419801,-0.851690418546298,-0.755491797555589,-0.651052108539316,-0.553585630929287,-0.513965111575617,-0.426958451074958,-0.355799998315767,-0.271804497285988,-0.283849135169503,-0.46895620158985,-0.751371263542807,-1.01064794219322,-1.23014561941255,-1.37483975609215,-1.50542898788185,-1.42274096399074,27,"prev_rew",4890.72195215003,252.39447041912,"norisk",TRUE,"normals","trained"
"22","P001",2834684,"RESPONSE LOSE INV 2_28",2,"2_28",683,2833833,FALSE,FALSE,TRUE,FALSE,FALSE,FALSE,FALSE,TRUE,FALSE,"norisk",FALSE,-1,0,FALSE,4896.69603769499,300.578838801003,-1.23754636386483,-0.920511260663622,-0.712226190421381,-0.68068825701586,-0.628706135623845,-0.591462847431397,-0.670703886138737,-1.03077516602488,-1.50178390010131,-1.86597571400025,-2.04727921056264,-2.16931041017194,-2.2141608380803,-2.19324120386156,-2.12858051627637,-2.05615420689786,-1.95108058957193,-1.87073017632269,-1.76946012885471,-1.64473473392935,-1.45392231272208,-1.31905406484219,-1.14408985137638,-0.984498399419801,-0.851690418546298,-0.755491797555589,-0.651052108539316,-0.553585630929287,-0.513965111575617,-0.426958451074958,-0.355799998315767,-0.271804497285988,-0.283849135169503,-0.46895620158985,-0.751371263542807,-1.01064794219322,-1.23014561941255,-1.37483975609215,-1.50542898788185,-1.71937979239167,-1.88848016899313,-2.00116092603497,-2.09910284987724,-2.21479476638995,-2.2747009916527,-2.29815633911008,-2.15770120571895,-1.99830275668834,-1.82635231790919,-1.65440187913007,-1.48245144035096,-1.3105010015718,-1.11195931007081,-0.919203783524951,-0.745665908755877,-0.683223970254496,-0.52046287674962,-0.425849076533056,-0.290029936188674,-0.219029965506901,-0.160233114786054,-0.0982666225169131,-0.103655013149011,-0.0889161799494483,-0.073543418440224,-0.0740188646724676,-0.0832108251625178,-0.117125989729261,-0.135668392786779,-0.248507631906029,-0.655489606706927,-1.16738671675634,-1.65107401702594,-2.02334841687302,-2.25536617820812,-2.5769263132825,-2.72637491228454,-2.79214497441163,-2.79880122166305,-2.76298427216733,-2.65188833589964,-2.44982368719593,-2.26313180000143,-1.95932165759749,-1.67960079096058,-1.39163885629811,-1.09939790554544,-0.867221662132937,-0.706362353557039,-0.572920444373878,-0.404295514004658,-0.310949570407414,-0.173070163056642,-0.0440657520410916,0.0251909157891216,0.0763806267940633,0.0389788565242005,-0.0502465530602657,-0.380840166547285,-0.515866896504592,-0.687027540112448,-0.885605583113041,-1.44708116971368,28,"prev_rew",4890.72195215003,252.39447041912,"norisk",TRUE,"normals","trained"
"23","P001",2837936,"RESPONSE REW VAL2_29",2,"2_29",770,2836998,FALSE,TRUE,FALSE,FALSE,FALSE,FALSE,FALSE,TRUE,FALSE,"norisk",FALSE,-1,0,FALSE,4896.69603769499,300.578838801003,-1.47184710954436,-0.95816281246854,-0.118869292580821,-0.136777767328681,-0.258333520705738,-0.674824420151518,-1.18878179720732,-1.66803159930931,-2.03666091137586,-2.26535054908524,-2.58722764831445,-2.72891062552318,-2.79483916972768,-2.7972164008889,-2.76060704100611,-2.64443967826115,-2.44269199371227,-2.25346439327914,-1.94759398386881,-1.66755615307707,-1.38165448542099,-1.08671933935227,-0.859931486571861,-0.701290927079767,-0.56658116127729,-0.399065605449975,-0.306829036394632,-0.166096951650395,-0.0410545925702154,0.0280435931825868,0.0766975909488923,0.0354922508210772,-0.0584876210858287,-0.390190609114754,-0.521572251291522,-0.695110126060597,-0.892261830364455,-1.01730418944464,-1.19575500861357,-1.3353777188159,-1.45883525712193,-1.52951826364888,-1.56898030092514,-1.57627047648621,-1.57880618972485,-1.53443120804874,-1.48403390743087,-1.39877054978177,-1.30051166178467,-1.0385407878182,-0.983389024877896,-0.821103377605268,-0.704936014860305,-0.575931603844758,-0.426483004842715,-0.258492002783156,-0.135351428631947,-0.0458090548926551,0.0581551878913737,0.13517747751491,0.247699752479331,0.309032316438814,0.337559090373455,0.348811317869898,0.38003228712059,0.410619328061621,0.41093629221645,0.435025567983484,0.454518863505487,0.343422927237796,0.0429056902201361,-0.603947713307725,-1.0935340686811,-1.52603165794576,-1.80353377549886,-1.97469441910672,-2.13824792299867,-2.28642866538139,-2.42747771428046,-2.47042635725983,-2.43540181815119,-2.36741300694029,-2.29419428717471,-2.20766307290629,-2.00734172705414,-1.78419896205427,-1.43601383797422,-1.06167917112075,-0.961835462349501,-0.779422591245205,-0.635362382875263,-0.457545492015992,-0.308413857168778,-0.240266563880466,-0.185273283017572,-0.161659453482785,-0.253262094228469,-0.357067854935083,-0.459605759022381,-0.614918194888766,-0.884337726493721,-0.994641252374338,-1.09402932517302,29,"prev_lose",4890.72195215003,252.39447041912,"norisk",TRUE,"normals","trained"
"24","P001",2841250,"RESPONSE REW VAL2_30",2,"2_30",835,2840247,FALSE,TRUE,TRUE,FALSE,FALSE,FALSE,FALSE,TRUE,FALSE,"norisk",FALSE,-1,0,FALSE,4896.69603769499,300.578838801003,-1.75424532290435,-1.22915086137307,0.45055681157012,0.259110462053188,-0.0972130101874183,-0.769382458155672,-1.21762553529679,-1.61367224675608,-1.8632815186842,-2.01130377898951,-2.19767870202917,-2.32287954318677,-2.44237502955744,-2.47407144504037,-2.42050450287421,-2.33001123667043,-2.28912286069744,-2.15679032605618,-1.95456719527505,-1.6970338194762,-1.3030473750233,-1.03663900288923,-0.911438161731632,-0.735681537878754,-0.599386951302131,-0.39890712337256,-0.283849135169503,-0.226161658990558,-0.176556768759766,-0.173228645134057,-0.280837975698623,-0.390032127037339,-0.48258566024751,-0.702717265776502,-0.926018512853783,-1.01080642427064,-1.01619481490274,-1.01777963567688,-1.02744704239918,-1.03648052081182,-1.06500729474646,-1.04678185584377,-0.978159116323212,-0.661353443571268,-0.725221720769384,-0.667534244590442,-0.681480667402932,-0.723953864150067,-0.8052551698638,-0.737719164588388,-0.814364115932357,-0.969072810551453,-0.834257390030685,-0.6789449541643,-0.514916004040104,-0.354373659619036,-0.299063414601313,-0.129804555922434,-0.0221952253578677,0.0760636626392342,0.161802466520577,0.256257784659723,0.266083673459435,0.312201957987108,0.332012217663943,0.310141690980715,0.275909562259143,0.27067965370446,0.285101522749197,0.223293512557471,0.085414105206699,-0.153418385457222,-0.505724043550054,-0.879741746248696,-1.14773493915692,-1.36121029743449,-1.49385979623058,-1.58562091905368,-1.59883338798306,-1.54882060125794,-1.49880781453283,-1.44879502780767,-1.39878224108256,-1.34876945435744,-1.14486537432899,-0.963261801046232,-0.808266329334676,-0.611273107108232,-0.505882525627469,-0.420143721746126,-0.352313392612644,-0.240266563880466,-0.157855883624832,-0.178141589533911,-0.141056783418877,-0.115541168955112,-0.19937818790748,-0.285909402175892,-0.383375879785921,-0.457228527861163,-0.507625828479029,-0.510320023795079,-0.654891997206673,30,"prev_rew",4890.72195215003,252.39447041912,"norisk",TRUE,"normals","trained"
"25","P001",2844267,"RESPONSE LOSE INV 2_31",2,"2_31",537,2843562,FALSE,FALSE,TRUE,FALSE,FALSE,FALSE,FALSE,TRUE,FALSE,"norisk",FALSE,-1,0,FALSE,4896.69603769499,300.578838801003,-1.01131753565967,-0.690819890000307,0.27693969576234,0.331219807276866,0.315847045767642,0.31204347590969,0.25998211347897,0.280743265620292,0.269887243317387,0.187714286177877,0.00870877973799548,-0.251043345144666,-0.645822199984629,-0.970155771413773,-1.23894137470907,-1.40162322717524,-1.53181625377139,-1.6084158379196,-1.58182904049651,-1.53181625377139,-1.48180346704628,-1.43179068032116,-1.38177789359601,-1.31810888812475,-1.08291576949432,-0.891548661016091,-0.725142479730678,-0.570939418406195,-0.481555526744314,-0.39589596390168,-0.312455150142854,-0.213641574874799,-0.154923965192662,-0.178854758882278,-0.122355898283944,-0.135747633825485,-0.220060099010093,-0.321964074787733,-0.418717383049395,-0.474186110144533,-0.516421583775544,-0.498513109027687,-0.442806658816426,-0.402076764920854,-0.298587968369069,-0.217445144732752,-0.155954098695858,-0.143592496657513,-0.110786706632672,-0.0614987805567085,-0.168077977618079,-0.171564583321202,-0.0989005508265712,-0.00499991995837442,0.118933064579904,0.275275633949485,0.524250977567947,0.599133759146381,0.723621430955612,0.842562230055331,0.916494119169278,0.951043212045679,1.0279070195918,1.05508669586842,1.1088913611507,1.15580205606544,1.18282325026465,1.20508998214141,1.21959109222485,1.06855767244866,0.710071213336657,0.154433049920792,-0.367844636199282,-0.764446034929519,-1.05042694362431,-1.35851610211844,-1.66383182425782,-1.88974802561245,-2.00195333642204,-2.16079144047542,-2.13400908546331,-2.05044885211093,-1.90306052011528,-1.70717667243074,-1.46406516567662,-1.2651701585212,-1.00898388038037,-0.784652499799888,-0.580923789283318,-0.425135907184689,-0.297954040059408,-0.197159438823673,-0.0794864963432744,-0.0264742414480638,0.0234476129375617,0.0309755116147575,-0.170455208779301,-0.41887586512681,-0.663413710577661,-0.902563165396411,-1.29076501402367,-1.55622249369326,-0.495551475205999,31,"prev_rew",4890.72195215003,252.39447041912,"norisk",TRUE,"normals","trained"
"26","P001",2847511,"RESPONSE REW VAL2_32",2,"2_32",765,2846577,FALSE,TRUE,FALSE,FALSE,FALSE,FALSE,FALSE,TRUE,FALSE,"norisk",FALSE,-1,0,FALSE,4896.69603769499,300.578838801003,-1.31011378020927,-0.877688618074616,1.2006524839738,1.22537568805049,1.09478645626079,0.763400432386697,0.229474313576645,-0.315387068575024,-0.724825515575849,-1.01619481490274,-1.32048040353892,-1.62896576722659,-1.86605495503895,-1.97659620403569,-2.16382938564953,-2.14136399314051,-2.05146670883348,-1.93737188987556,-1.73403938455252,-1.48680734378563,-1.29076501402367,-1.04337449117935,-0.812386863347457,-0.600258602727909,-0.440508668693913,-0.310553365213876,-0.21181903098453,-0.0943045705815461,-0.0290099546866999,0.0163159194539004,0.0398505079499787,-0.14010589095439,-0.38670400341163,-0.632192741326969,-0.882990628835699,-1.23157195810928,-1.53696692128737,-1.6722313743608,-1.82263086582733,-1.98951249334499,-2.15219434581116,-2.26004139949185,-2.32248333799323,-2.27715746385263,-2.23317868737006,-2.10853253348341,-2.07269270686772,-1.93944177190337,-1.78858540114254,-1.63772903038172,-1.48687265962088,-1.28929093177221,-1.14036552255714,-1.05335886205648,-0.830453820172732,-0.654459473203731,-0.466024283157675,-0.278143780382573,-0.134638259283583,-0.00650549969381431,0.0782031706843322,0.140011180876059,0.19595535420344,0.222659584247813,0.238903997182819,0.254831445962992,0.264261129569166,0.298651740368152,0.339857080495968,0.251424081298578,-0.0178369682289626,-0.442251971545473,-0.838615647159586,-1.27182640577261,-1.66874476865768,-1.97009843886169,-2.18484165375858,-2.4106786140745,-2.59562719841743,-2.73437825719398,-2.67724546828599,-2.54832029830915,-2.38500451753332,-2.17200460548799,-1.95020893814615,-1.73253380481709,-1.4562995438833,-1.19979630158764,-1.05129859505009,-0.883862280261478,-0.752401397046003,-0.678469507932056,-0.606043198553545,-0.542095680316724,-0.458337902403065,-0.435674965332765,-0.585757492644467,-0.667771967706562,-0.723161453762995,-0.80668150856053,-0.918728337292708,-1.05961890411436,-1.14723638095505,32,"prev_lose",4890.72195215003,252.39447041912,"norisk",TRUE,"normals","trained"
"27","P001",2850664,"RESPONSE REW VAL2_33",2,"2_33",670,2849826,FALSE,TRUE,TRUE,FALSE,FALSE,FALSE,FALSE,TRUE,FALSE,"norisk",FALSE,-1,0,FALSE,4896.69603769499,300.578838801003,-1.75077030060888,-1.30214020175259,0.254355999730748,0.265766709304606,0.302059105032567,0.338034536605699,0.242152879769818,-0.0401037001057246,-0.468639237435021,-0.861199343191181,-1.30067014386209,-1.68641552028942,-1.98927477022887,-2.19292423970673,-2.42747771428046,-2.60672094383646,-2.7323972312263,-2.67233252388614,-2.54047543547712,-2.37359380795946,-2.15663184397877,-1.93982836207549,-1.71747800746269,-1.43712321251612,-1.1906835821363,-1.0417104293665,-0.871659160300547,-0.746458319142953,-0.675141384306347,-0.602873557005251,-0.53742045903299,-0.4554852250096,-0.434090144558619,-0.599069987147298,-0.671496296525809,-0.727123505698362,-0.812703827502286,-0.926176994931198,-1.06738452590768,-1.14821038538916,-1.17832198009795,-1.15756082795663,-1.10383540371305,-0.995275180683997,-0.92998056478915,-0.78401857149023,-0.639165952733215,-0.522523143756009,-0.455960671241843,-0.312851355336388,-0.191771048191575,-0.0863804667108121,0.0660792917621077,0.157998896662625,0.24801671663416,0.308398388129155,0.36481800768878,0.423773340487042,0.464820198537442,0.540733113619073,0.565931763928009,0.507927323594235,0.503806789581454,0.553253197734832,0.549766592031709,0.542000970238393,0.517753212393944,0.541525524006146,0.510304554755457,0.419018878164598,0.052067290158954,-0.413580377781463,-0.826808732392194,-1.14440681553121,-1.43728169459354,-1.68118561173473,-1.81351814637599,-1.95979710382974,-2.10823385572215,-2.13897241249543,-2.09107947701298,-2.04318654153049,-1.99529360604804,-1.94740067056559,-1.89030358366404,-1.74616326347475,-1.49718791985629,-1.28656523897218,-1.10050728008735,-0.936795294117983,-0.778788662935547,-0.599386951302131,-0.463884775112577,-0.352788838844887,-0.248666113983444,-0.232817906241976,-0.389873644959924,-0.460398169409454,-0.560400360258119,-0.685284237260885,-0.883862280261478,-1.00184874163414,-0.876988120153617,33,"prev_rew",4890.72195215003,252.39447041912,"norisk",TRUE,"normals","trained"
"28","P001",2854084,"RESPONSE LOSE INV 2_34",2,"2_34",941,2852975,FALSE,FALSE,TRUE,FALSE,FALSE,FALSE,FALSE,TRUE,FALSE,"norisk",FALSE,-1,0,FALSE,4896.69603769499,300.578838801003,-1.69788657698706,-1.37390725886879,-0.12964607384502,-0.590511954966906,-0.959299749110865,-1.26675497929534,-1.54504950723552,-1.73617889259762,-1.8805560651224,-2.0079756553638,-2.1436850773469,-2.11981523830242,-2.07192230281998,-2.02402936733753,-1.97613643185508,-1.92764265772748,-1.87421678202581,-1.63998027160691,-1.39163885629811,-1.21730857114197,-1.02126624138001,-0.884496208571139,-0.702875747853916,-0.543284295897331,-0.418241936817151,-0.298587968369069,-0.233451834551634,-0.284958509711405,-0.419509793436468,-0.505090115240396,-0.599545433379545,-0.760721706110272,-0.94820600369184,-1.00304080247732,-1.07166354199787,-1.10748049149359,-1.1054202244872,-1.04345373221806,-1.00145598170317,-0.96690688882677,-0.999712678851611,-1.081647912875,-1.07372380900426,-1.04155194728908,-0.996384555225902,-0.947889039537011,-0.827284178624438,-0.73219493217563,-0.631241848862481,-0.551208399768065,-0.521096805059278,-0.450572280609745,-0.411585689565734,-0.370697313592748,-0.316179478962097,-0.190503191572255,-0.0938291243493025,-0.0201349583514751,0.00918422597023909,0.0193270789247801,0.0245569874794634,0.0648114351427914,0.0434163546918111,0.0316886809631247,0.0255078799439506,0.0209118996989255,0.0313717168082956,0.099519010096607,0.128996676495736,0.012829313750777,-0.410159350869003,-0.943134577214568,-1.43553839174198,-1.8363395655237,-2.1300068549731,-2.3891250515461,-2.57439060004386,-2.67375886258287,-2.68985128860755,-2.52444666209008,-2.31984889821455,-2.11525113433907,-1.91065337046354,-1.70605560658805,-1.50170336002919,-1.31937102899702,-1.11112557927413,-0.964054211433308,-0.769438220368079,-0.628072207314187,-0.488449497111855,-0.346766519903131,-0.242960759196517,-0.163561238411763,-0.10222867445228,-0.0561103899246071,-0.0909764469558372,-0.266099142499057,-0.394152661050121,-0.562619109341923,-0.729342254782165,-0.848203812843175,-1.25355804464063,34,"prev_rew",4890.72195215003,252.39447041912,"norisk",TRUE,"normals","trained"
"29","P001",2857075,"RESPONSE LOSE INV 2_35",2,"2_35",517,2856390,FALSE,FALSE,FALSE,FALSE,FALSE,FALSE,FALSE,TRUE,FALSE,"norisk",FALSE,-1,0,FALSE,4896.69603769499,300.578838801003,-1.39806719007783,-1.02969837658303,0.0494386736335671,0.0279643521438777,0.0303415833050994,0.0217835511247072,0.0312924757695866,0.0801841966520157,0.133592656740761,0.0511027354464215,-0.312692873258974,-0.854701578017178,-1.34932414162839,-1.77025253924178,-2.08420553460026,-2.34601792648931,-2.55188614505098,-2.6611595374284,-2.69562938926609,-2.56119242048213,-2.35667649571217,-2.15207873183664,-1.94748096796116,-1.74288320408563,-1.53828544021014,-1.34494120286447,-1.15542131991153,-0.987271835774557,-0.80668150856053,-0.650972867500607,-0.517927163510984,-0.370538831515333,-0.25619401266064,-0.17671525083718,-0.113639384026137,-0.0652231093759518,-0.0584876210858287,-0.243436205428761,-0.365229681921941,-0.533458407097623,-0.702875747853916,-0.831483953675929,-0.949394619272447,-0.999316473658073,-1.0330731561474,-1.03545038730862,-0.970155771413773,-0.843845555714273,-0.874411876383695,-0.782775635197572,-0.688274396456475,-0.593773157715418,-0.499271918974321,-0.394269982587993,-0.130993171503045,-0.0347945505123359,0.0102936005121408,0.0198817661957292,0.00807485142833734,0.0541138949173013,0.0941306194645056,0.156017870694941,0.224006681905838,0.236685248099012,0.27963389107839,0.259823631401555,0.287241030794295,0.320601508090085,0.295878304013393,0.16552679533982,-0.184084667436961,-0.687582227383397,-1.07760661990093,-1.39932523705272,-1.6625639676385,-1.84727482886532,-1.98586740556445,-2.07587165897685,-2.01892047696299,-1.92256707386555,-1.8262136707681,-1.72986026767065,-1.62899814197005,-1.52008858004271,-1.2565328853021,-1.0665921155206,-0.818329941250508,-0.624585601611064,-0.426879210036253,-0.252231960725273,-0.135747633825485,-0.0463637421636041,0.0076786462347992,0.0614833115170825,0.0820067405422847,0.0782031706843322,-0.0419262439959936,-0.26340494718301,-0.450968485803284,-0.542729608626382,-0.653350098661829,-0.899552005925531,-0.909189697258311,35,"prev_lose",4890.72195215003,252.39447041912,"norisk",TRUE,"normals","trained"
"30","P001",2860400,"RESPONSE LOSE INV 2_36",2,"2_36",843,2859389,FALSE,FALSE,FALSE,FALSE,FALSE,FALSE,FALSE,TRUE,FALSE,"norisk",FALSE,-1,0,FALSE,4896.69603769499,300.578838801003,-1.09919143038213,-0.694634679828353,0.255623856350065,0.0190101147699511,-0.439795499345546,-0.890518527512895,-1.25122373570871,-1.53411424389391,-1.76264539952588,-1.91875024577934,-2.04157385577571,-2.06866504108692,-1.97074377541427,-1.87439037231682,-1.77803696921938,-1.68168356612193,-1.58167952528793,-1.38102055711133,-1.1799068008721,-0.93600288373091,-0.725063238691969,-0.512697254956301,-0.339159380187226,-0.186065693404645,-0.0954139451234478,-0.0106260337065958,0.0337489479695137,0.07115071823938,0.0874743722130915,0.0381864461371242,-0.139630444722146,-0.378304453308653,-0.500177170840542,-0.605250788166472,-0.739326625659292,-1.04424614260513,-1.21192018050986,-1.3450451255382,-1.45043570701896,-1.52143567770073,-1.56137316120923,-1.57436869155724,-1.51636425122346,-1.47230623370218,-1.35296922940893,-1.26406078397929,-1.21287107297435,-1.04408766052772,-0.84804533076576,-0.746775283297782,-0.597960612605397,-0.467212898738286,-0.397322302598415,-0.229806746771096,-0.183846944320841,-0.113639384026137,-0.0307532575382598,0.0953984760838255,0.106492221502854,0.218380568157617,0.292867144542516,0.349445246179556,0.391759960849277,0.432331372667434,0.481302334588568,0.503648307504039,0.572271047024594,0.62964155904871,0.666409401008915,0.595567912404553,0.30728901358725,-0.0312287037705034,-0.447085674906622,-0.783701607335401,-1.04757426623084,-1.1161970057514,-1.15042913447297,-1.12903405402199,-1.21348339009165,-2.23605851728726,-3.42328876505283,-4.21075167611323,-2.56949270141083,-0.845387245290132,-0.631083366785067,-0.60144721830852,-0.393677214817877,-0.223308981597097,-0.135668392786779,-0.118552328425992,-0.0993759970588148,0.00236949664140687,0.108077042276999,0.228364939034739,0.290648395458709,0.30253455126481,0.257208677124214,0.200155129254927,0.144210955927546,0.0831953561228955,-0.0343983453187977,-0.355641516238352,-0.702334267422747,36,"prev_lose",4890.72195215003,252.39447041912,"norisk",TRUE,"normals","trained"
"31","P001",2863679,"RESPONSE REW VAL2_37",2,"2_37",807,2862704,FALSE,TRUE,FALSE,FALSE,FALSE,FALSE,FALSE,TRUE,FALSE,"norisk",FALSE,-1,0,FALSE,4896.69603769499,300.578838801003,-0.840450254322499,-0.304995172355965,0.653730834815741,0.653572352738326,0.445406144054145,0.124162973134591,-0.274736415718158,-0.650972867500607,-0.969442602065406,-1.07863675340412,-1.17087332245946,-1.14202958436999,-1.08378187958871,-1.73742181322575,-2.92465206099132,-4.06984188999037,-3.48634963519744,-1.35806673521539,-0.643286486745997,-0.648040949068436,-0.49486802124715,-0.273785523253671,-0.164670612953665,-0.115382686877697,-0.119661702967893,-0.0559519078471925,0.0755089753682815,0.170518980778384,0.275592598104314,0.308002182935617,0.272977643826973,0.233991052782961,0.162040189636697,0.108156283315708,0.0669509431878894,-0.285275473866234,-0.342329021735521,-0.380602443431165,-0.424581219913736,-0.447878085293695,-0.508814444059639,-0.58599521576059,-0.634332249372067,-0.542571126548968,-0.460952856680407,-0.381791059011776,-0.320854700245831,0.0718643290419897,0.217883269939784,0.300104124865924,0.382324979792063,0.464545834718198,0.546766689644338,0.628987544570477,0.710434309461102,0.771166054180016,0.872119137493169,0.938919333123455,0.95072624789085,0.899378054808494,1.03828759566246,1.16848062225862,1.22648506259239,1.2125386397799,1.24138237786937,1.24898951758528,1.22894153479232,1.18749847154838,1.15936790280727,1.00667042121823,0.597231974217407,-0.0200557173127697,-0.570384731135242,-0.81769601294085,-1.10209210086149,-1.2792750634111,-1.38133752126616,-1.40923036689114,-1.33030629233863,-1.20320366625206,-0.990203754206728,-0.744635775252684,-0.533299925020209,-0.410951761256076,-0.250647139951127,-0.0567443182342688,0.122023465089493,0.345720917360309,0.458322433363439,0.534076866367659,0.642874812512833,0.705475233091632,0.729564508858663,0.740420531161571,0.767045520167235,0.723383707839492,0.624649373610147,0.399446341603887,0.353882744347167,0.260140595556384,0.158870548088403,0.073290226284478,-0.0829565934966674,37,"prev_lose",4890.72195215003,252.39447041912,"norisk",TRUE,"normals","trained"
"32","P001",2867046,"RESPONSE REW VAL2_38",2,"2_38",892,2865986,FALSE,TRUE,TRUE,FALSE,FALSE,FALSE,FALSE,TRUE,FALSE,"norisk",FALSE,-1,0,FALSE,4896.69603769499,300.578838801003,-0.108203606726373,0.24381400672939,0.892721807557076,0.411411738448697,-0.264514321724912,-0.648833359455509,-0.914924767434755,-1.17435992816259,-1.32158977808082,-1.40194019133007,-1.38846921474982,-1.30875272981024,-1.12317021715765,-0.901612272931923,-0.679420400396543,-0.47513700260902,-0.369587939050846,-0.193197386888306,0.0153650269894132,0.192864953693851,0.392552371236349,0.486056796911008,0.574489796108401,0.672590202028085,0.712369203459173,0.732496427290837,0.755476328515963,0.75769507759977,0.695094657020971,0.542000970238393,0.384945231520444,0.321076954322329,0.226780118260594,0.12772881987642,0.0564118850398138,0.0174252939958021,0.0334319838146846,0.047061442472349,0.0488047453239089,0.0892176750646514,0.0419900159950767,0.0740033956328416,0.0581551878913737,0.069565897465231,0.0816105353487465,0.0598984907429372,-0.0156974601838646,-0.0516728917569965,-0.164353648798835,-0.227587997687293,-0.133132679548143,-0.0202934404288897,0.170677462855798,0.241994397692404,0.462284485298806,0.648659408338469,0.758962934219086,0.840739686165062,0.913007513466155,0.973864631193394,0.998904799424912,1.08385119291918,1.14597616726573,1.19764132450292,1.23282434568898,1.24265023448869,1.27276182919748,1.29304753510656,1.24914799966269,1.08971502978352,0.699215191033752,0.19619307731956,-0.252469683841396,-0.625378011998136,-0.933467170492274,-1.16453403936288,-1.34108307360283,-1.39623483654314,-1.51477943044932,-1.45601395160729,-1.30050679373452,-1.14499963586175,-0.989492477988983,-0.833985320116214,-0.676139334589059,-0.465786560041555,-0.31522858649761,-0.18590721132723,0.00094315794467605,0.143577027617887,0.22804797487991,0.266876083846508,0.312360440064522,0.367036756772584,0.378130502191612,0.325831416644769,0.207762268970832,-0.0191840658869879,-0.219188447584315,-0.44771960321628,-0.609529804256668,-1.01492695828342,-0.144820732757479,38,"prev_rew",4890.72195215003,252.39447041912,"norisk",TRUE,"normals","trained"
"33","P001",2870177,"RESPONSE REW VAL2_39",2,"2_39",657,2869351,FALSE,TRUE,TRUE,FALSE,FALSE,FALSE,FALSE,TRUE,FALSE,"norisk",FALSE,-1,0,FALSE,4896.69603769499,300.578838801003,-0.563614281475659,-0.245293136939586,1.22616809843756,1.26341138663001,1.28393481565521,1.28417253877133,1.1790989214454,0.864670479854678,0.385579159830102,-0.09002555449135,-0.490272041002124,-0.818012977095679,-1.09575281776491,-1.27555073459186,-1.39076720487233,-1.45503168726398,-1.51279705224547,-1.35959951372618,-1.20409235585341,-1.04858519798064,-0.893078040107872,-0.737570882235103,-0.542113800281205,-0.371568965018529,-0.24525874931903,-0.0593592725116104,0.0920703524581167,0.204275663267708,0.256337025698432,0.28890509260715,0.340491008805626,0.388352596184859,0.352297923573021,0.265370504111068,0.0724185748586963,-0.141056783418877,-0.368082359315406,-0.563807724922534,-0.832117881985587,-1.11183874862249,-1.12023829872547,-1.13299610595735,-1.17023939414981,-1.24432976534117,-1.33458530842883,-1.40075157574945,-1.47713993706333,-1.50241782841097,-1.44988101974801,-1.13679967581531,-0.927841056744052,-0.769438220368079,-0.572603480219049,-0.400333462069291,-0.29549756785948,-0.182182882507987,-0.0755244444079074,-0.0364586123251867,0.0602154548977663,0.142467653075986,0.181295762042579,0.257921846472577,0.294768929471491,0.330427396889794,0.339777839457259,0.315371599535399,0.269649520201264,0.2689363508529,0.258872738937068,0.177333710107212,-0.104764387690916,-0.480763116357241,-0.830136856017903,-1.05890573476599,-1.23973378509614,-1.43799445757761,-1.59753552036085,-1.75804941928085,-1.91856331820084,-2.01685105806331,-1.93166653508863,-1.8546442454651,-1.88665762510286,-1.89172905158013,-1.68031396030895,-1.4562995438833,-1.00953856765132,-0.722686007530751,-0.542412644471553,-0.413408233456003,-0.318398228045904,-0.241138215306248,-0.172753198901813,-0.0751282392143693,-0.0841617176270086,-0.027187410796431,-0.0447789213894588,-0.0530992304537309,0.0382656871758333,0.0925457986903603,-0.0290099546866999,-0.121721969974286,-0.870394605391178,39,"prev_rew",4890.72195215003,252.39447041912,"norisk",TRUE,"normals","trained"
"34","P001",2959830,"RESPONSE LOSE INV 3_3",3,"3_3",1412,2958240,FALSE,FALSE,TRUE,FALSE,FALSE,TRUE,FALSE,FALSE,FALSE,"learning",FALSE,-1,0,FALSE,4896.69603769499,300.578838801003,-0.0792845764871646,-0.419225806839652,-0.443836792319622,-0.403740826733709,-0.307225241588167,-0.20437037334604,-0.132974197470729,-0.00737715111959606,0.0461897910465673,0.0453181396207855,0.150550239024134,0.193498882003513,0.326861550147965,0.411490979487402,0.490018848846375,0.661100251415522,0.856270929751701,0.758804452141672,0.564663907308689,0.184148439436044,-0.125763262948362,-0.2773513699955,-0.401522077649902,-0.486468471144172,-0.57402981891578,-0.554219559238945,-0.587897000689565,-0.702638024737793,-0.78251299175479,-0.790437095625524,-0.794953834831844,-0.732115691136925,-0.653746303855363,-0.597960612605397,-0.534726263716939,-0.477038787537998,-0.433614698326376,-0.387654895876117,-0.355324552083523,-0.323390413484464,-0.288762079569357,-0.198823500636528,-0.134004330973925,-0.0633213244469774,-0.0127655417516939,0.109899586167268,0.184306921513459,0.216890411174679,0.189325697904624,0.158746102430313,0.267592444109195,0.52353780821958,0.560226409141079,0.625283301919805,0.651115880538399,0.678771003047259,0.706743089710952,0.695490862214509,0.788916046850462,0.851516467429261,0.9113434516533,0.993278685676691,1.03931772916565,1.06562575401649,1.0905866812093,1.12180765045999,1.16245830331686,1.06887463660349,1.05540366002325,0.98163025298671,0.641527714854811,0.160376127823843,-0.187888237294914,-0.547563311987528,-0.83885337027571,-1.17729184659476,-1.38735984020791,-1.34228701071359,-1.34542146062233,-1.35380042241919,-1.36217938421605,-1.37055834601286,-1.37893730780972,-1.39042318864085,-1.21976504334189,-1.00489216129074,-0.725985316233304,-0.487498604647365,-0.348906027948229,-0.157618160508712,-0.0950177399299133,-0.0523860611053637,0.0712299592780855,0.186842634752095,0.190012276300389,0.25221649168565,0.484947422369106,-0.00880348981632687,-0.680292051822321,-0.967303094020308,-0.797331065993066,-0.597088961179615,-0.271650517540319,3,"prev_rew",4890.72195215003,252.39447041912,"norisk",TRUE,"normals","not_trained"
"35","P001",3016410,"RESPONSE REW VAL3_16",3,"3_16",849,3015383,FALSE,TRUE,TRUE,FALSE,FALSE,FALSE,FALSE,TRUE,FALSE,"norisk",FALSE,-1,0,FALSE,4896.69603769499,300.578838801003,0.737253522205935,0.676616689127951,-0.325688403606976,-0.256035530583225,0.0249531926730016,0.112197576289781,0.310696378251668,0.275592598104314,0.399129377449058,0.520526648748703,0.683129260176164,0.646361418215956,0.651908290925472,0.658247574022057,0.75595177474821,0.730436160284445,0.707456259059315,0.707693982175439,0.734160489103692,0.74097521843252,0.772275428721921,0.808250860295053,0.869504183215827,1.00389698486348,1.17894043936799,1.24146161890808,1.31681984671876,1.33353970588601,1.34043367625355,1.25239688224969,1.01182108873421,0.839392588507037,0.641448473816102,0.285973174174975,0.00973891324119176,-0.106666172619891,-0.272438425595646,-0.407465155552952,-0.465073390693188,-0.575852362806049,-0.61515591800489,-0.61214475853401,-0.617929354359646,-0.626566627578747,-0.539401485000674,-0.406276539972341,-0.303342430691509,-0.0546840512278763,0.146588187088767,0.233674088628132,0.251344840259869,0.421237627248405,0.446119313402509,0.441998779389727,0.542000970238393,0.593111440204625,0.685823455492211,0.782656004792583,0.826397058159034,0.871326727106096,0.960948341884097,1.05469049067488,1.13131657510488,1.13670496573697,1.16340919578135,1.18860784609028,1.1833779375356,1.19288686218048,1.16895606849086,1.05318491093944,0.589387111385378,-0.0542086049956326,-0.602556592850422,-0.960012918459232,-1.14876507266012,-1.37650381790501,-1.54005732179696,-1.60075595744678,-1.81264959231981,-1.80033496705358,-1.75839142050654,-1.7164478739595,-1.67450432741246,-1.63256078086542,-1.55820042229134,-1.38672591189826,-1.23593021523819,-0.925860030776369,-0.716980652743821,-0.454217368390283,-0.293516541891797,-0.159599186476396,-0.0340021401252596,0.0408014004144695,0.0788370989939904,0.184544644629583,0.258951979975774,0.311171824483912,0.315926286806351,0.340570249844335,0.383043446591466,0.450873775724952,-0.45061850454899,16,"prev_rew",4890.72195215003,252.39447041912,"norisk",TRUE,"normals","trained"
"36","P001",3020172,"RESPONSE REW VAL3_17",3,"3_17",713,3019281,FALSE,TRUE,TRUE,FALSE,FALSE,FALSE,FALSE,TRUE,FALSE,"norisk",FALSE,-1,0,FALSE,4896.69603769499,300.578838801003,0.220686192798811,-0.186930741410522,-1.65154946325819,-1.82606868795941,-1.79026851588228,-1.74832496933524,-1.7063814227882,-1.66443787624116,-1.62249432969412,-1.52585691467798,-1.34140003775766,-1.17293358946585,-0.865874564474912,-0.673239599377369,-0.394945071437193,-0.262691777834643,-0.121642728935577,-0.0199764762740606,0.0541931359560067,0.102688651644901,0.204354904306418,0.273532331097925,0.310696378251668,0.326148380799598,0.341204178153993,0.403804598732792,0.465533367885809,0.54921190476076,0.645172802635349,0.701909386349803,0.713637060078489,0.531382671051608,0.0661585328008167,-0.320062289858759,-0.670703886138737,-0.866191528629741,-1.01492695828342,-1.17491461543354,-1.32911767675802,-1.47080065396674,-1.60051823433066,-1.71993447966262,-1.87223575605813,-1.91756163019873,-1.94196787012059,-1.90765650036031,-1.76842999535151,-1.64005951264562,-1.58308520581504,-1.53712540336479,-1.27483756524349,-1.05510216490804,-0.920947086376515,-0.771023041142228,-0.6228422987595,-0.474265351183238,-0.360475219599501,-0.304689528349534,-0.0916896163042044,-0.0087242487776178,0.0761429036779397,0.129947568960227,0.23882475614411,0.3207599901675,0.37559478895298,0.439146101996266,0.434787844867361,0.457292299860246,0.505629333471723,0.334310207786455,-0.197555644017211,-0.763019696232784,-1.1410786919055,-1.40098929886558,-1.62215103789776,-1.78942887060896,-1.98380713855806,-2.03037800530285,-2.07144302928308,-2.08553728517963,-2.09963154107621,-2.11372579697276,-2.12781441516699,-2.02128814986663,-1.85567437896829,-1.51287764552034,-1.23593021523819,-1.11239343589345,-0.941549756440422,-0.760721706110272,-0.595107935211931,-0.474186110144533,-0.325688403606976,-0.291377033846699,-0.269268784047351,-0.223705186790631,-0.206272158275018,-0.121801211012995,-0.0448581624281679,0.0253493978665361,0.0869196849421389,0.182801341778019,-0.987918970923999,17,"prev_rew",4890.72195215003,252.39447041912,"norisk",TRUE,"normals","trained"
"37","P001",3023923,"RESPONSE REW VAL3_18",3,"3_18",716,3023030,FALSE,TRUE,TRUE,FALSE,FALSE,FALSE,FALSE,TRUE,FALSE,"norisk",FALSE,-1,0,FALSE,4896.69603769499,300.578838801003,-0.184943682418035,-0.502734287576729,-2.02897985511792,-2.07172491440102,-2.08581917029756,-2.09991342619415,-2.11400768209069,-2.12808502488017,-2.01748458000868,-1.85044447041361,-1.50622139826892,-1.2317304401867,-1.11033316888706,-0.937270740350226,-0.758502957026468,-0.591462847431397,-0.472601289370387,-0.322360279981271,-0.291456274885408,-0.269110301969937,-0.222041124977777,-0.20587595308148,-0.119661702967893,-0.0434318237314334,0.0263002903310233,0.0885837467549933,0.185891742287608,0.314896153303155,0.382568000359223,0.454043417273243,0.508402769826479,0.511255447219944,0.445485385092851,0.183672993203801,0.0102936005121408,-0.112846973639065,-0.277985298305158,-0.375610257992602,-0.452949511770967,-0.473235217680046,-0.431871395474812,-0.443123622971255,-0.410951761256076,-0.377036596689333,-0.398114712985488,-0.436942821952085,-0.408574530094854,-0.348192858599862,-0.260235305634716,-0.220139340048802,-0.00856576670020327,0.0887422288324078,0.174005586481507,0.180186387500678,0.293501072852175,0.259902872440261,0.34041176776692,0.417592539467867,0.564188461076446,0.756110256825624,0.88099413382839,0.901755285969712,0.909362425685617,0.9188713503305,0.978777575593248,1.05326415197815,1.11158555646675,1.13757661716276,1.16705428356189,1.04676638680415,0.793195062940658,0.353248816037508,-0.0369340585574339,-0.352788838844887,-0.582112404863929,-0.767219471284275,-0.908268520183341,-1.00478410532888,-1.05264569270811,-0.941708238517837,-0.944719397988717,-0.963578765201061,-0.878156925474551,-0.797014101838233,-0.69859673176372,-0.764275990992349,-0.57617355690957,-0.368906071322745,-0.161638585735956,0.0456288998508719,0.253652136269497,0.506184020742672,0.557849177979861,0.590496485927284,0.643271017706371,0.646757623409494,0.681623680440725,0.632969682674415,0.641527714854811,0.690498676775946,0.735824550916542,0.733922765987568,-0.0509625423744211,18,"prev_rew",4890.72195215003,252.39447041912,"norisk",TRUE,"normals","trained"
"38","P001",3028055,"RESPONSE LOSE INV 3_19",3,"3_19",1083,3026795,FALSE,FALSE,TRUE,FALSE,FALSE,FALSE,FALSE,TRUE,FALSE,"norisk",FALSE,-1,0,FALSE,4896.69603769499,300.578838801003,0.643546386897362,0.324438477572584,-0.76340969750158,-0.65078985172081,-0.443522366134022,-0.236254880547197,-0.028987394960369,0.17828009062642,0.40244086327659,0.570210780018205,0.582889346211379,0.633128164751833,0.636456288377539,0.683050019137455,0.642161643164469,0.632652718519586,0.66054556414457,0.737567853768106,0.728851339510299,0.71981786109766,0.744382583096938,0.762608021999624,0.691608051317847,0.661496456609061,0.664032169847693,0.620449598558656,0.501905004652476,0.399525582642596,0.255782338427479,-0.0931951960396443,-0.390032127037339,-0.510636987949908,-0.575773121767344,-0.637105685726823,-0.741228410588266,-0.837902477811223,-0.963420283123646,-1.0309336481023,-1.0179381177543,-0.963103318968817,-0.890835491667724,-0.760087777800614,-0.603032039082665,-0.472918253525217,-0.362139281412356,-0.267050034963548,-0.220139340048802,-0.144226424967172,-0.0889161799494483,-0.0570612823890979,0.159425235359355,0.264657334762704,0.434550121751237,0.487800099762571,0.573380421566496,0.645489766790178,0.713954024233318,0.75595177474821,0.771007572102602,0.830596833210521,0.831864689829841,0.864511997777264,0.899695018963323,0.930123577826939,0.964197224471097,0.965782045245242,0.999697209811985,1.04280433486878,1.04169496032688,0.904290999208348,0.591447378391771,0.0323226092727828,-0.461982990183603,-0.714474288038053,-0.945482459842924,-1.18984683865709,-1.32628175517891,-1.45631385614139,-1.58634595710386,-1.70511780174222,-1.54251379399689,-1.49639550946921,-1.35471253226049,-1.22131429151354,-0.969558151691519,-0.715030047484512,-0.460501943277465,-0.205973839070462,0.0485542651365448,0.277739956654802,0.285260004826612,0.362916222759802,0.404755491197279,0.339777839457259,0.449130472873389,0.427576910344994,0.388907283455811,0.394137192010495,0.444692974705778,0.449605919105632,0.524884905877605,0.624411650494023,-0.346388121454879,19,"prev_rew",4890.72195215003,252.39447041912,"norisk",TRUE,"normals","trained"
"39","P001",3032077,"RESPONSE REW VAL3_20",3,"3_20",973,3030926,FALSE,TRUE,FALSE,FALSE,FALSE,FALSE,FALSE,TRUE,FALSE,"norisk",FALSE,-1,0,FALSE,4896.69603769499,300.578838801003,0.40886391528386,0.247409932147814,-1.32379429812362,-1.11209389004744,-0.857565785840431,-0.603037681633424,-0.348509577426417,-0.0939814732193707,0.160546630987636,0.323614630187319,0.292550180387687,0.377655055959368,0.412362630913184,0.347068015018334,0.464027788150369,0.402853706268301,0.385737641907517,0.412362630913184,0.443583600163876,0.47321974864042,0.582096935824306,0.65880226129301,0.782893727908702,0.888918237699124,0.922991884343281,0.918554386175671,0.805715147056417,0.495248757401062,0.15181809564345,-0.0635590475630974,-0.258016556550909,-0.615393641121013,-0.688770842964008,-0.708264138486014,-0.693366823209033,-0.701766373312011,-0.703509676163574,-0.663572192655075,-0.620148103443453,-0.56658116127729,-0.488291015034441,-0.387179449643874,-0.29082234657575,-0.231233085467831,-0.18590721132723,-0.113322419871308,0.165130590146282,0.270204207472216,0.258635015820945,0.438670655764019,0.632018790209928,0.59921300018509,0.620766562713485,0.649927264957789,0.699690637265996,0.739945084929324,0.668945114247551,0.50333134334921,0.518228658626191,0.526152762496925,0.567992030934398,0.719659379020245,0.977192754819099,0.987969536083298,0.994150337102473,0.987652571928469,0.952152586587581,0.919980724872402,0.914750816317718,0.859757535454824,0.567843212398288,0.0423765576473109,-0.371965170212064,-0.816031951127995,-1.13537333711858,-1.40178170925265,-1.60606510704017,-1.78625922906066,-1.86502482153576,-1.93665872052719,-1.88832168691572,-1.72911915362038,-1.49584810873056,-1.23854243706593,-0.981236765401301,-0.723931093736633,-0.503068102528537,-0.295101362665946,-0.0442242341185061,0.0938136553096765,0.15657255796589,0.187476563061753,0.308715352283984,0.265449745149777,0.27067965370446,0.414581379996988,0.541208559851317,0.596677286946454,0.632969682674415,0.660704046221984,0.718233040323515,0.802070059275879,-0.448847194088924,20,"prev_lose",4890.72195215003,252.39447041912,"norisk",TRUE,"normals","trained"
"40","P001",3036055,"RESPONSE REW VAL3_21",3,"3_21",936,3034941,FALSE,TRUE,TRUE,FALSE,FALSE,FALSE,FALSE,TRUE,FALSE,"norisk",FALSE,-1,0,FALSE,4896.69603769499,300.578838801003,0.469676805454639,0.210073633715122,-1.60906260426301,-1.35175693259838,-1.09445126093371,-0.837145589269081,-0.579918247826613,-0.394152661050121,-0.15880677608932,0.0407221593757604,0.144844884237204,0.144844884237204,0.295719821935978,0.279396167962267,0.25245421480177,0.340253285689506,0.494456347013989,0.585900505682259,0.610782191836362,0.638516555383931,0.700007601420825,0.761023201225479,0.837094598384524,0.865938336473995,0.918554386175671,0.968476240561293,0.980045432212564,0.944386964794262,0.833291028526572,0.680355823821405,0.529322404045216,0.411728702603526,0.362757740682388,0.392076925004106,0.367195238849998,0.332012217663943,0.275751080181729,0.26592519138202,0.274800187717242,0.282090363278317,0.313152850451595,0.35134703110853,0.354992118889068,0.310617137212959,0.185416296055364,0.0445257292337129,-0.0393112897186519,-0.0489786964409494,-0.0453336086604115,-0.064034493795341,-0.053733158763389,-0.00507916099708349,0.0738449135554271,0.218063604002787,0.334072484670332,0.38433283910284,0.441600365386747,0.500271866171807,0.558943366956867,0.617614867741887,0.676286368526942,0.79451731149248,0.921407063569132,0.788916046850462,0.785904887379582,0.800485238501734,0.831864689829841,0.873386994112485,0.896683859492443,0.893355735866734,0.585108095295182,0.207445304816003,-0.156746509082931,-0.510636987949908,-0.755650279633003,-0.944560915911302,-1.0935340686811,-1.21160321635504,-1.29290452206877,-1.21366348336143,-1.21398044751626,-1.15771931003404,-0.972136797381456,-0.901149788059152,-0.718990252617654,-0.530461387291625,-0.341932521965639,-0.153403656639614,0.0348989740480114,0.291123841690953,0.346117122553847,0.478449657195103,0.521873746406725,0.578927294276012,0.619657188171584,0.631701826055099,0.630909415668026,0.650085747035203,0.679563413434332,0.674808951111892,0.640101376158077,0.630592451513197,-0.212049168759587,21,"prev_rew",4890.72195215003,252.39447041912,"norisk",TRUE,"normals","trained"
"41","P001",3039884,"RESPONSE REW VAL3_22",3,"3_22",783,3038923,FALSE,TRUE,TRUE,FALSE,FALSE,FALSE,FALSE,TRUE,FALSE,"norisk",FALSE,-1,0,FALSE,4896.69603769499,300.578838801003,0.638004779373126,0.388819247837904,-1.22721370098038,-1.20447152287137,-1.2165954017936,-1.05581533425641,-0.920233917028147,-0.798172376054601,-0.609643510728575,-0.42111464540255,-0.232585780076524,-0.0440569147505346,0.175294358021826,0.340570249844335,0.42559588437731,0.504044512697574,0.560543373295908,0.602620364849505,0.630354728397074,0.634237539293735,0.633999816177612,0.671084622292649,0.682891537060041,0.653017665467374,0.638754278500051,0.607850273404192,0.624332409455318,0.627185086848783,0.622668347642463,0.63138486190027,0.614268797539486,0.513236473187628,0.379477599849637,0.27987161419451,0.109661863051144,-0.137887141870583,-0.345657145361229,-0.530051042433209,-0.590274231850786,-0.688057673615641,-0.840517432088564,-1.08212335910724,-1.25043132532163,-1.33062325649346,-1.34900717747356,-1.32372928612592,-1.19805299873608,-1.15019141135685,-1.08093474352663,-0.972533002574991,-0.889092188816164,-0.688850084002717,-0.569750802825584,-0.433535457287667,-0.293675023969212,-0.146920620283219,0.0464275141626873,0.154433049920792,0.240726541073084,0.344056855547458,0.452379355460389,0.583681756598452,0.678691762008554,0.666330159970206,0.711418310994682,0.743669413748571,0.805477423940297,0.869028736983584,0.98884118750908,0.95999744941961,0.687091312111531,0.285973174174975,-0.1251293346387,-0.40786136074649,-0.632905910675336,-0.799153609883331,-0.940044176704982,-1.11231419485474,-1.10563196693489,-1.01230680787239,-0.91163171771144,-0.810956627550451,-0.710281537389503,-0.609606447228514,-0.505769509719818,-0.31998304882005,-0.242802277119102,-0.0559519078471925,0.0259833261761942,0.100469902561094,0.189457589029437,0.274245500446289,0.182801341778019,0.12447993728942,0.163149564178599,0.148727695133865,0.135018995437495,0.153957603688548,0.171073668049333,0.218697532312446,0.28113947081383,0.32995195065755,-0.108627388327897,22,"prev_rew",4890.72195215003,252.39447041912,"norisk",TRUE,"normals","trained"
"42","P001",3043668,"RESPONSE REW VAL3_23",3,"3_23",736,3042755,FALSE,TRUE,TRUE,FALSE,FALSE,FALSE,FALSE,TRUE,FALSE,"norisk",FALSE,-1,0,FALSE,4896.69603769499,300.578838801003,0.156003391435376,0.108029874992073,-1.1329870127234,-1.04452283672388,-0.943847746562935,-0.843172656401986,-0.742497566240998,-0.641822476080046,-0.529779544448143,-0.398510918179022,-0.273310077021428,-0.101673987181327,0.00759940519609374,0.0720223696651581,0.164892867030162,0.247303547285796,0.234466499015204,0.117982172115417,0.160138404707723,0.161802466520577,0.120597126392758,0.162674117946355,0.148489972017742,0.211090392596541,0.253088143111432,0.322899498212598,0.365689659114562,0.427735392422408,0.505233128278185,0.543902755167367,0.559196275637883,0.457054576744123,0.163625010410846,-0.0229083947062349,-0.160470837902174,-0.383930567056874,-0.627596761081943,-0.750737335233149,-0.836238415998368,-0.865082154087839,-0.787505177193354,-0.690514145815572,-0.604537618818105,-0.540035413310332,-0.406910468282,-0.356116962470596,-0.26039378771213,-0.179805651346765,-0.0669664122275153,0.113940879141341,0.441364851080069,0.514900535000482,0.570131538979496,0.612446253649217,0.686932830034117,0.723700671994321,0.805556664979003,0.858014232603261,0.882341231486415,0.960393654613144,1.00508560044408,1.03281996399165,1.04771727926863,1.04240812967524,1.04621169953319,1.06039584546181,1.04383446837197,1.08266257733857,1.10160118558962,0.980283155328688,0.652399585365457,0.128188417900922,-0.267525481195792,-0.578229593967271,-0.829740650824365,-1.0547059597145,-1.25502730556666,-1.46390668359921,-1.50063211023164,-1.52643378155711,-1.51410374441386,-1.5017737072706,-1.48944367012734,-1.42585881938303,-1.18545367358161,-0.978079875284507,-0.882198218448623,-0.594790971057102,-0.331156035277783,-0.184560113669205,-0.0599139597825595,0.0216250690472927,0.11821989523154,0.0968248147805563,0.0447634523498365,0.0185346685377039,0.0752712522521615,0.1750357199847,0.283278978858928,0.33890618803148,0.374406173372369,0.360301268482461,-0.307717196370141,23,"prev_rew",4890.72195215003,252.39447041912,"norisk",TRUE,"normals","trained"
"43","P001",3047512,"RESPONSE REW VAL3_24",3,"3_24",798,3046537,FALSE,TRUE,TRUE,FALSE,FALSE,FALSE,FALSE,TRUE,FALSE,"norisk",FALSE,-1,0,FALSE,4896.69603769499,300.578838801003,0.126886916747569,-0.0834260769393095,-1.52791338601433,-1.51558334887108,-1.50325331172778,-1.49092327458452,-1.44614584049608,-1.21627843763877,-0.988935897587412,-0.910408028228439,-0.622287611488551,-0.357701783244745,-0.203102516726724,-0.0745735519434202,0.0140971703700933,0.103164097877145,0.113306950831682,0.0480123349368362,0.0158404732216568,0.0661585328008167,0.162277912752821,0.272502197594729,0.329714227541427,0.376862645572296,0.368700818585438,0.325910657683474,0.348098148521531,0.36038050952117,0.434867085906066,0.455390514931268,0.431935167473895,0.361252160946948,0.331932976625234,0.214497757260955,0.101183071909461,-0.0148258087580864,-0.147871512747709,-0.193752074159259,-0.243436205428761,-0.273468559098842,-0.308572339246192,-0.290505382420921,-0.262612536795937,-0.205004301655702,-0.123544513864555,0.00427128157038489,0.0877913363679206,0.141199796456666,-0.0391528076412374,0.0607384457532331,0.203562493919345,0.322424051980354,0.441285610041364,0.560147168102373,0.679008726163383,0.797870284224392,0.911771353262321,1.08860565524162,1.14035005351751,1.12164916838258,1.16879758641345,1.17101633549725,1.16380540097489,1.2190364049539,1.27894263021665,1.27379196270067,1.25263460536581,1.16253754435557,1.07038021633893,0.91261130827262,0.536850302722415,0.101500036064291,-0.30175760991736,-0.613016409959792,-0.851769659585007,-1.0611244838498,-1.26905296941786,-1.61153273871098,-1.84125250992356,-1.86494558049705,-1.92786296523068,-2.02897453062124,-2.09450686963221,-2.01914864182153,-1.89085740015435,-1.6593150850515,-1.4293575907228,-1.12586441247369,-0.883106442661499,-0.755040733181392,-0.611361926734044,-0.467683120286656,-0.324004313839304,-0.170726892340577,-0.0172822809580135,0.00997663635731176,0.0621172398267407,0.198649549519487,0.272898402788267,0.325831416644769,0.401902813803814,0.438432932647899,-0.4609594601003,24,"prev_rew",4890.72195215003,252.39447041912,"norisk",TRUE,"normals","trained"
"44","P001",3051456,"RESPONSE LOSE INV 3_25",3,"3_25",910,3050368,FALSE,FALSE,TRUE,FALSE,FALSE,FALSE,FALSE,TRUE,FALSE,"norisk",FALSE,-1,0,FALSE,4896.69603769499,300.578838801003,0.0690241214700881,-0.398474614445922,-2.01130377898951,-2.09339749509031,-2.03269885944049,-1.91288640891499,-1.68998136703124,-1.45471472310915,-1.17491461543354,-0.892779944848314,-0.772282189955085,-0.628603383507734,-0.484924577060346,-0.341245770612958,-0.195417877533402,-0.0289307136479909,0.0108482877830935,0.0520536279109087,0.183276788010263,0.268460904620653,0.315926286806351,0.393424022662131,0.436293424602801,0.494060141820451,0.541763247122269,0.523696290296994,0.507689600478112,0.517753212393944,0.401585849648985,0.203483252880636,0.102450928528778,-0.0400244590670191,-0.156429544928102,-0.250884863067251,-0.209917246055556,-0.265227491073279,-0.306512072239803,-0.330205142813296,-0.349460715219178,-0.398590159217731,-0.460952856680407,-0.523949482452744,-0.535994120336259,-0.511825603530519,-0.509527613408007,-0.46142830291265,-0.451840137229062,-0.447878085293695,-0.382108023166605,-0.376719632534504,-0.339317862264641,-0.326005367761809,-0.224576838216413,-0.105002110807036,-0.00967514124210862,0.0985681176321198,0.172658488823482,0.279792373155805,0.245005557163284,0.300949730490665,0.35134703110853,0.366402828462926,0.388114873068739,0.38502447255915,0.389382729688055,0.408638302093937,0.424011063603161,0.450715293647534,0.455232032853854,0.307685218780788,-0.113005455716479,-0.588847893154052,-0.99876178638712,-1.32000495730667,-1.44449262911591,-1.54782294359028,-1.61438541610444,-1.65083629390982,-1.56945574715738,-1.43561763278068,-1.35011655201547,-1.15573828406636,-0.933663127573535,-0.765891540231293,-0.555631022361605,-0.345370504491957,-0.135109986622309,0.0751505312473391,0.338223628037419,0.359825822250217,0.364184079379122,0.422663965945136,0.444376010550949,0.554362572276737,0.610148263526704,0.626154953345587,0.667598016589525,0.753257579432159,0.775524311308921,0.797157114876025,0.749216286458083,0.739786602851909,-0.590868241652827,25,"prev_rew",4890.72195215003,252.39447041912,"norisk",TRUE,"normals","trained"
"45","P001",3055489,"RESPONSE REW VAL3_26",3,"3_26",995,3054317,FALSE,TRUE,FALSE,FALSE,FALSE,FALSE,FALSE,TRUE,FALSE,"norisk",FALSE,-1,0,FALSE,4896.69603769499,300.578838801003,0.673307846783968,0.454879073301405,-0.837380116306982,-0.627119598437294,-0.416859080567646,-0.206598562697994,0.0036619551716541,0.238889979814949,0.380349251275419,0.376228717262638,0.385896123984932,0.442157261467142,0.515059017077897,0.589704075540211,0.628690666584219,0.64929333664813,0.726157144194248,0.76815489470914,0.788440600618219,0.771483018334845,0.729960714052201,0.752465169045087,0.745808921793669,0.764509806928602,0.818076749094762,0.78780667230856,0.629483076971296,0.515375981232726,0.304277854116374,0.127570337799005,0.0464275141626873,-0.0133202290226465,-0.031387185847918,-0.0326550424672378,-0.0331304886994814,-0.0681550278081225,-0.0917688573429099,-0.110945188710087,-0.171802306437326,-0.241375938422368,-0.267525481195792,-0.259918341479887,-0.278460744537405,-0.284958509711405,-0.295101362665946,-0.299855824988386,-0.300489753298044,-0.347558930290204,-0.366101333347723,-0.310157160020341,-0.383534361863336,-0.259122853770918,-0.137435544883017,-0.0175482128581373,0.102339119166699,0.222226451191575,0.342113783216451,0.478371698373871,0.664190651925108,0.705554474130341,0.778139265586263,0.807141485753148,0.8217218368753,0.85183343158409,0.925844561736743,1.04232888863653,1.07561012489362,1.09985788273806,1.13028644160168,1.02378648557902,0.721244199794394,0.382092554126979,-0.0144296035645483,-0.446768710751793,-0.658817730332636,-0.801451600005847,-1.09448496114559,-1.20272822001981,-1.25455185933441,-1.25249159232802,-1.27515452939832,-1.2393375799026,-1.14218806644741,-0.894005133216018,-0.756125725865247,-0.563886965961243,-0.368161600354111,-0.253420576305884,-0.157538919470003,-0.0703737768919296,0.0456351037756146,0.143418545540473,0.188585937603655,0.178918530881361,0.120755608470173,0.179077012958776,0.162911841062479,0.147539079553254,0.140090421914764,0.127570337799005,0.118853823541198,0.195400666932487,-0.14674232794613,26,"prev_lose",4890.72195215003,252.39447041912,"norisk",TRUE,"normals","trained"
