"","fname","time","text","block","info","RT","fix_cross_time","risk","rew","prev_rew","next_risk","prev_risk","learning","critical","trained","last_trial","trial_type","blink","blink_time","blink_duration","meg","Zmean","Zsd","BL_fix_m300","inter_trial","V_m1999_m1950","V_m1949_m1900","V_m1899_m1850","V_m1849_m1800","V_m1799_m1750","V_m1749_m1700","V_m1699_m1650","V_m1649_m1600","V_m1599_m1550","V_m1549_m1500","V_m1499_m1450","V_m1449_m1400","V_m1399_m1350","V_m1349_m1300","V_m1299_m1250","V_m1249_m1200","V_m1199_m1150","V_m1149_m1100","V_m1099_m1050","V_m1049_m1000","V_m999_m950","V_m949_m900","V_m899_m850","V_m849_m800","V_m799_m750","V_m749_m700","V_m699_m650","V_m649_m600","V_m599_m550","V_m549_m500","V_m499_m450","V_m449_m400","V_m399_m350","V_m349_m300","V_m299_m250","V_m249_m200","V_m199_m150","V_m149_m100","V_m99_m50","V_m49_0","V_1_50","V_51_100","V_101_150","V_151_200","V_201_250","V_251_300","V_301_350","V_351_400","V_401_450","V_451_500","V_501_550","V_551_600","V_601_650","V_651_700","V_701_750","V_751_800","V_801_850","V_851_900","V_901_950","V_951_1000","V_1001_1050","V_1051_1100","V_1101_1150","V_1151_1200","V_1201_1250","V_1251_1300","V_1301_1350","V_1351_1400","V_1401_1450","V_1451_1500","V_1501_1550","V_1551_1600","V_1601_1650","V_1651_1700","V_1701_1750","V_1751_1800","V_1801_1850","V_1851_1900","V_1901_1950","V_1951_2000","V_2001_2050","V_2051_2100","V_2101_2150","V_2151_2200","V_2201_2250","V_2251_2300","V_2301_2350","V_2351_2400","V_2401_2450","V_2451_2500","V_2501_2550","V_2551_2600","V_2601_2650","V_2651_2700","V_2701_2750","V_2751_2800","V_2801_2850","V_2851_2900","V_2901_2950","V_2951_3000","resp_1001_2200","index","feedback_prev","Zmean_2","Zsd_2","trial_type4","resp_flag","group","train"
"1","P301",617287,"RESPONSE REW VAL1_19",1,"1_19",1802,615317,FALSE,TRUE,TRUE,FALSE,FALSE,TRUE,FALSE,FALSE,FALSE,"learning",FALSE,-1,0,FALSE,5259.06118383728,371.996247599825,1.07101310844667,1.10396901670804,1.08182855785688,1.02926794038319,0.995360828761185,0.972572309297072,0.994717604421475,1.00831720474683,1.01576022924922,0.987458358301859,0.99480949361286,0.968804852450184,1.01998713205305,1.01870068337362,1.00923609666071,1.01451824308174,0.79880499792734,0.554934856561548,0.311064715195756,0.0671945738299676,-0.176675567535824,-0.420545708901612,-0.309813304944686,0.245912583804306,0.540141774627249,0.669613645292312,0.873607650172678,1.04442965696214,1.14743744050759,1.21056531499083,1.28619011950279,1.37065098865857,1.28721499942729,1.06718663237548,0.921392772655164,0.815166124450197,0.766832409780343,0.820403808359285,0.827387386904741,0.823068594909524,0.83005217345498,0.83970053855067,0.875353544809042,0.977258658057839,0.897866396698995,0.816085016364072,0.72410393578513,0.700580302789917,0.71289345443585,0.696996624325803,0.667408304699009,0.700304635215756,0.686061810550684,0.652614144885616,0.606761438383225,0.555119712823421,0.504213100794717,0.462127851139219,0.454684826636828,0.454225380679888,0.459738732163141,0.423442501565059,0.412323909407165,0.415631920297118,0.474165335210988,0.497413300632036,0.435479985636828,0.443566234478934,0.473154554105724,0.50035375475644,0.495483627612897,0.456706388847352,0.369135989455012,0.299116425617698,0.31528892330191,0.342947569909561,0.333023537239706,0.364541529885635,0.396151411722953,0.444209458818644,0.532974417699023,0.617971919732509,0.679629567153557,0.669889312866473,0.706553100230108,0.736417087431063,0.760124498809051,0.822884816526749,0.835657414129617,0.851186687474114,0.892628712789903,0.942248876139182,0.887023472115261,0.868186187880815,0.841905879143974,0.919368467483679,0.883439793651147,0.865705179713351,0.865429512139187,0.746393057469983,0.390536183092743,0.0345369090058734,0.47550538591872,19,"prev_rew",5419.0962764606,217.653455188737,"norisk",TRUE,"autists","not_trained"
"2","P301",733331,"RESPONSE REW VAL1_39",1,"1_39",3877,729270,FALSE,TRUE,TRUE,FALSE,FALSE,FALSE,FALSE,TRUE,FALSE,"norisk",FALSE,-1,0,FALSE,5259.06118383728,371.996247599825,0.875450929035135,1.04740074081702,0.56990794430189,0.37577788033277,0.258558530615505,0.141339180898281,0.0241198311810156,-0.09309951853625,-0.210318868253516,-0.24429119155975,0.354261192187945,0.515687997980447,0.929292500153534,1.16893951129228,1.27944461749867,1.01268820650986,0.797416891777413,0.811031110837755,0.913303780852102,0.899979848100904,0.906595869880811,0.843008549440623,0.832716960005218,0.802025970081775,0.882796569311433,0.858262155210956,0.884450574756412,0.943167768053057,0.953183689914301,0.999403953182238,1.04158109202913,1.08247178219659,1.0941417095028,1.042499983943,1.03450562429228,0.967242736196595,0.715833908560249,0.735590084708574,0.700764081172692,0.646181901488485,0.657116715263604,0.726860611526758,0.684591583488484,0.672094653459776,0.701223527129631,0.720428368129627,0.693229167478911,0.687256370038723,0.731822627861685,0.74174666053154,0.746800566057857,0.688267151143983,0.553925153335382,0.574048886249257,0.536282428588971,0.495024181655962,0.470397878364095,0.46084140245979,0.488591938258831,0.492267505914334,0.513310130742083,0.583237805388012,0.593069948866482,0.67448377243585,0.686429367316234,0.702693754191831,0.764810847569818,0.784383245335364,0.825641492268377,0.843835552163113,0.862948503971723,0.859456714698995,0.834370965450193,0.878293998933445,0.914682118722916,0.938665197675064,1.0196195752875,1.07190452518702,1.1118763234406,1.19108480641667,1.10480085570376,1.16599905716787,1.20753297167505,1.23776451564155,1.34527486956499,1.42825080938795,1.50883763023483,1.48513021885684,1.48650855672766,1.44892587745015,1.41639710369895,1.34793965611522,1.33893451535925,1.31614599589513,1.22719725863198,1.18217155485208,1.20146828504347,1.18658223603868,1.08100155513439,1.19788460657935,0.916152345785116,0.489523957200061,0.960328074544681,39,"prev_rew",5419.0962764606,217.653455188737,"norisk",TRUE,"autists","trained"
"3","P301",961866,"RESPONSE REW VAL4_2",4,"4_2",2395,959294,FALSE,TRUE,TRUE,FALSE,FALSE,FALSE,FALSE,FALSE,FALSE,"unused",FALSE,-1,0,FALSE,5259.06118383728,371.996247599825,0.689062404777104,0.735382538993985,0.361325408187071,0.29571652553636,0.218897161536365,0.185908941828236,-0.0491436097411274,-0.187069286013842,-0.22915453566934,-0.262234644568858,-0.283644826162162,-0.237954379687618,-0.246660298994422,-0.32590018713718,-0.405140075279887,-0.484379963422645,-0.563619851565403,-0.64285973970816,-0.350223197939739,-0.38435537992292,-0.10381767861672,0.256939286770814,0.445679685880847,0.533433863655958,0.601983200431072,0.658954499091358,0.785210248057853,0.938358900370427,1.05475187612802,0.930580384601576,0.407038845133765,0.320710385593772,0.251334046096173,0.249588151459809,0.268149768120094,0.279268360277988,0.420869604206206,0.506785998153567,0.497505189823426,0.526817841876056,0.649306133995663,0.554108931718157,0.517904590311461,0.463873745775583,0.449906588684675,0.46056573488563,0.463230521435869,0.588326169361098,0.76371966342209,0.792928940134409,0.788334480565031,0.671543318311451,0.55348102224366,0.445922171247018,0.401253814322524,0.356516540504442,0.353055380962191,0.302332547316262,0.290203174053108,0.306743228502865,0.281106144105738,0.37235211115358,0.348185253818653,0.351309486325831,0.348093364627263,0.360865962230136,0.405156552478934,0.483170475966968,0.530401520340169,0.588383600105714,0.520477487670314,0.355444499938269,0.253263719115311,0.134450994651203,0.0628693145602999,0.0520263899765702,0.0667286605985778,0.162675030048224,0.244145068181745,0.179024819819325,0.186368387785171,0.23718311062249,0.277614354833014,0.324845399206215,0.377497905871283,0.392383954876065,0.449630921110511,0.453030821191849,0.472511329766009,0.474808559550698,0.471500548660749,0.465619640411943,0.468927651301896,0.46056573488563,0.440533891163141,0.437133991081802,0.470949213512424,0.47931112992869,0.426107288115298,0.464700748498068,0.448436361622471,0.4305179693019,0.301773554735324,2,"prev_rew",5419.0962764606,217.653455188737,"norisk",TRUE,"autists","not_trained"
"4","P301",1262671,"RESPONSE REW VAL3_2",3,"3_2",2757,1259737,FALSE,TRUE,TRUE,FALSE,FALSE,TRUE,FALSE,FALSE,FALSE,"learning",FALSE,-1,0,FALSE,5259.06118383728,371.996247599825,0.451051082300976,0.552102371824582,-0.19083674286073,-0.201392219204758,-0.248105587474069,-0.402937192009905,-0.55776879654569,-0.712600401081476,-0.867432005617307,-0.81358090037886,-0.905734651855892,-0.855011818209963,-0.685206335600228,-0.52452659831017,-0.392717296339186,-0.300092991420533,-0.234851665535372,-0.138184236195662,-0.0529110665880157,0.0370484517803981,0.095949423459818,0.0908955179335051,0.133899659502878,0.182417152555508,0.205848896359331,0.260982411191863,0.320434718019612,0.293603074134446,0.313267361091381,0.366011756947838,-0.120541511449256,-0.0760671428176788,-0.065591774999499,-0.0763428103918433,-0.081948051066481,-0.1128228193727,-0.137816679430112,-0.136897787516238,-0.132211438755475,-0.130649322501886,-0.123849522339205,-0.145259703932508,-0.14140035789423,-0.17062112075547,-0.217668386745896,-0.242019022463599,-0.270320893410964,-0.269769558262639,-0.17108056671241,-0.120265843875091,-0.0553001855640899,0.0126059268713104,-0.0773535914971034,-0.0594351991765323,-0.00880425472198874,0.0394375707564764,0.059561303670351,0.108813910254076,0.116165045565082,0.138677897455031,0.153380168077038,0.227259077952635,0.234150767306701,0.226891521187081,0.251517824478947,0.276971130493299,0.248944927120094,0.248669259545934,0.308489123139228,0.340374672550712,0.319240158531573,0.300402874297123,0.304078441952626,0.269436216799519,0.151634273440679,0.134267216268428,0.118646053732546,0.184714382340197,0.278900803512438,0.385767933096163,0.483262365158354,0.52819617974687,0.682386242895181,0.850727241517179,0.86800240949804,0.90733098341191,0.84052754127316,0.843927441354498,0.757000266301873,0.592610502909542,0.615031465608106,0.61668547105308,0.493829622167923,0.411221239110515,0.371892665196641,0.37198455438803,0.358017397297122,0.357190394574633,0.425923509732523,0.558060166947825,0.508072446832995,0.500629422330604,0.370958458417536,2,"prev_rew",5419.0962764606,217.653455188737,"norisk",TRUE,"autists","not_trained"
"5","P301",1377237,"RESPONSE REW VAL3_26",3,"3_26",622,1376437,FALSE,TRUE,FALSE,FALSE,FALSE,FALSE,FALSE,TRUE,FALSE,"norisk",FALSE,-1,0,FALSE,5259.06118383728,371.996247599825,-0.563500227326321,-0.618060735983407,-1.43317861042045,-1.50999797442044,-1.43455694829126,-1.44328642147308,-1.40432540432476,-1.29001525023864,-1.22890893796592,-1.17634832049223,-1.16817018245874,-1.04972501476019,-0.9389066499468,-0.877524670099912,-0.831580074406136,-0.739966550592747,-0.726642617841554,-0.684833035760216,-0.728572290860689,-0.712767349942031,-0.604889439253047,-0.582744144128643,-0.572268776310464,-0.509508458592766,-0.487455052659752,-0.622532163999453,-0.546631691913337,-0.474131119908559,-0.405857450707604,-0.370388222832012,-0.345761919540145,-0.270872228559289,-0.242937914377473,-0.143054363339204,-0.0957314297746139,-0.0866343998272482,-0.0768022563487786,-0.128811538674132,-0.133773555009064,-0.163545653018629,-0.104736570530594,-0.092055862119111,-0.161169661069906,-0.574460989876412,-0.457039730310473,-0.497831295917144,-0.89451693513721,-1.33466857367337,-1.77482021220958,-2.21497185074574,-2.6551234892819,-3.09527512781812,-3.53542676635428,-3.52017316058395,-2.42751155042515,-2.21676229771734,-1.74914469996162,-1.40349468890765,-1.13996020070277,-0.834796196104703,-0.650925924138208,-0.420467832138227,-0.210868586583219,-0.00301523566457609,0.0880469530004915,0.155034173522017,0.180211811962205,0.234977770029186,0.23745877819665,0.242145126957417,0.198957207005265,0.108078796722976,0.0143518215076744,-0.0692673426549978,-0.206825462162167,-0.518789266922906,-0.361015525310478,-0.202782337741114,-0.0263550902770141,0.0888739557229766,0.209340685632059,0.338904445488508,0.488683827450221,0.481608359713379,0.448528250813861,0.486294708474142,0.421053382588981,0.342763791526786,0.279819695426313,0.243155908062682,0.259787851703828,0.22771852390957,0.210167688354549,0.224778069785171,0.260431076043538,0.24655580814402,0.340466561742097,0.406443001158363,0.425464063775583,0.41250768778994,0.446966134560272,0.413150912129654,0.100107409370108,26,"prev_lose",5419.0962764606,217.653455188737,"norisk",TRUE,"autists","trained"
"6","P301",1577309,"RESPONSE REW VAL2_2",2,"2_2",802,1576327,FALSE,TRUE,TRUE,FALSE,FALSE,FALSE,FALSE,FALSE,FALSE,"unused",FALSE,-1,0,FALSE,5259.06118383728,371.996247599825,-1.22786518665247,-1.25267870272377,-1.25865032810795,-1.57217531147748,-1.88570029484701,-2.1992252782165,-2.51275026158603,-2.82627524495556,-3.13924021996224,-2.76388506252665,-2.15441293551313,-1.31835387686256,-0.917772135927661,-0.80401331698987,-0.759171391592747,-1.41342243427212,-1.35553224369796,-1.28615590420036,-1.28248033654486,-1.28404245279845,-1.19151003707118,-1.08510235344439,-1.02473115470277,-0.925674606386992,-0.882211018860679,-0.776262781190829,-0.718372590616673,-0.649731364650169,-0.559496178707595,-0.523108058918124,-0.499676315114296,-0.615640474645387,-0.480655252497075,-0.321870729779382,-0.265083209501876,-0.225662746396617,-0.176226361430112,-0.179810039894226,-0.55067481633439,-0.733350528812845,-0.684373589803276,-0.63741821300424,-0.483136260664539,-0.475141901013819,-0.433240429741095,-0.369653109300908,-0.337767559889429,-0.310200802473163,-0.308822464602349,-0.254424063300917,-0.234116552004268,-0.259477968827234,-0.254975398449242,-0.233932773621493,-0.281114511599303,-0.207517992897272,-0.167680666631067,-0.163453763827239,-0.202047224210014,-0.195523091621497,-0.131843881989925,-0.0943530919037998,-0.0569541910090685,-0.0313171066119417,0.0330053273593452,0.118829832115321,0.109457134593791,0.124343183598573,0.139229232603356,-0.107240485172692,-0.59903854638481,-1.07823146422247,-1.55742438206014,-2.0366172998978,-2.51581021773546,-2.99500313557313,-3.01691594314457,-2.08329463948738,-1.63000525837258,-1.28597212581759,-1.04283332540612,-0.88028134584154,-0.767257640434849,-0.67564411662146,-0.567674316741086,-0.516308258755443,-0.498389866434872,-0.485341601257838,-0.524486396788938,-0.760549729463557,-0.736199093745859,-0.66673086505687,-0.679962908616674,-0.674449557133421,-0.582468476554483,-0.509876015358316,-0.466136760257839,-0.456028949205209,-0.431126978339181,-0.566020311296112,-0.58063069272673,-0.600478758066444,-0.954956628709157,2,"prev_rew",5419.0962764606,217.653455188737,"norisk",TRUE,"autists","not_trained"
"7","P301",1581925,"RESPONSE REW VAL2_3",2,"2_3",1903,1579842,FALSE,TRUE,TRUE,FALSE,FALSE,FALSE,FALSE,FALSE,FALSE,"unused",FALSE,-1,0,FALSE,5259.06118383728,371.996247599825,-0.629776451413514,-0.617420483831843,-0.538269775497071,-0.507946342339177,-0.45308849508081,-0.448677813894207,-0.477990465946832,-0.574566006095152,-0.564917640999458,-0.628504961439645,-0.621061936937254,-0.625196950549692,-0.664249856889402,-0.752004034664516,-0.827720728367862,-0.829282844621447,-0.754668821214755,-0.704864879482701,-0.705875660587965,-0.808706472357401,-0.963378670151905,-1.11327603329759,-1.14740322520516,-1.13619274385587,-1.16964040952094,-1.16541350671712,-1.23809785710467,-1.36297526820036,-1.51008986361183,-1.58341743833909,-1.61153553090368,-1.66593393220512,-1.62688102586541,-1.58497955459268,-1.53545128043479,-1.47884753854006,-1.3729911900616,-1.25417846559749,-1.20648797526735,-1.11799868396114,-1.09962084568363,-1.06994063686545,-0.999553516262584,-0.909131587769769,-0.692003356855909,-0.597813971516205,-0.826940366371297,-1.1953092838656,-1.5636782013599,-1.93204711885416,-2.30041603634846,-2.66878495384277,-3.03715387133707,-3.4002818563145,-2.98316549074568,-2.3762373816309,-2.03128535716203,-1.78731955402807,-1.45688602179843,-1.32539258892285,-1.20896898343482,-1.11220966490372,-1.07021630443961,-0.988894370061629,-1.01388823011904,-1.01636923828651,-1.03667674958315,-1.03254173597072,-1.00589387046833,-0.988159256530525,-0.944328112238663,-0.923285487410913,-0.876973334951587,-0.879086786353501,-0.84269866656403,-0.84205544222432,-0.79280283564059,-0.764500964693225,-0.68575192767409,-0.644769348315241,-0.769646759410927,-0.756506605042508,-0.677022454492274,-0.55995562466453,-0.494162963631044,-0.471650111741095,-0.786830038200398,-0.749063580540113,-0.695032736004235,-0.684741146568826,-0.644861237506631,-0.545069575659748,-0.46163418987985,-0.406776342621479,-0.342545797841582,-0.333540657085601,-0.325638186626271,-0.304411783415747,-0.311854807918138,-0.33583788687029,-0.471925779315255,-0.479093136243486,-0.836576549187836,3,"prev_rew",5419.0962764606,217.653455188737,"norisk",TRUE,"autists","not_trained"
"8","P301",1676864,"RESPONSE REW VAL2_23",2,"2_23",3598,1673086,FALSE,TRUE,TRUE,FALSE,FALSE,FALSE,FALSE,FALSE,FALSE,"unused",FALSE,-1,0,FALSE,5259.06118383728,371.996247599825,-0.0664590746431284,-0.0951999580783384,0.0257460812397289,0.0910792963162801,0.0834524934311139,0.103024891196664,0.0431131384119752,0.00994114032107169,-0.125687306166958,-0.238343454808096,-0.419732718607127,-0.537534661965967,-0.608932563674095,-0.674817113898971,-0.737944988382223,-0.820369593056856,-0.85216325327695,-0.854092926296088,-0.888000037918096,-0.946257785257801,-0.911891227678859,-1.02739594125301,-1.28836124479366,-1.47489630331039,-1.41296298831518,-1.36766161696112,-1.35029455978887,-1.31142543183194,-1.33733818380323,-1.29111792053529,-1.30021495048265,-1.32603581326256,-1.33301939180801,-1.28257222573625,-1.28036688514294,-1.31546855625299,-1.34156508660705,-1.35663491399461,-1.33991108116208,-1.32043057258792,-1.28211277977931,-1.24131397880323,-1.20961220777453,-1.18866147213817,-1.15539758485587,-1.11064754865014,-1.49761150693031,-1.61811367283076,-1.72014488933156,-1.82217610583237,-1.92420732233317,-2.02623853883398,-2.12826975533478,-2.19982724119713,-1.84493407702807,-1.50951555616565,-1.31985626514175,-1.19100464651855,-1.02013669513339,-0.961288231563344,-1.00557882181215,-1.11059504054076,-1.21561125926938,-1.2966443990459,-1.20382318871711,-1.11395555954009,-1.06047605015253,-1.01545034637263,-0.960868166688424,-0.941111990540099,-1.0178394653487,-0.993580718822392,-0.592668176798498,-0.38509049345402,-0.475509457779369,-0.26820744200905,-0.111536370693275,-0.19956621604255,-0.269861447454029,-0.12329818719088,-0.127800757568872,-0.284655607267422,-0.503995107109513,-0.507211228808077,-0.527702518487501,-0.543507459406159,-0.506292336894202,-0.632639975052087,-0.635947985942036,-0.633191310200412,-0.617386369281751,-0.585317041487497,-0.567490538358311,-0.505189666597548,-0.452537159932481,-0.424970402516215,-0.421478613243491,-0.400895434372677,-0.412289694104736,-0.417986823970763,-0.613159466477923,-0.612791909712373,-0.655832150606936,23,"prev_rew",5419.0962764606,217.653455188737,"norisk",TRUE,"autists","not_trained"
"9","P301",1898558,"RESPONSE REW VAL5_1",5,"5_1",2874,1895509,FALSE,TRUE,TRUE,FALSE,FALSE,FALSE,FALSE,FALSE,FALSE,"unused",FALSE,-1,0,FALSE,5259.06118383728,371.996247599825,-5.71512578740634,-24.9024132043325,-2.98252226640597,-2.92196728928157,-2.79433320244427,-2.82860787083182,-2.83549956018589,-2.78146871565001,-2.7719122397457,-2.71429771674571,-2.7305621036213,-2.8291479999812,-2.69966648694492,-2.54148620211482,-3.2909023927026,-3.19735919587007,-3.12404112692123,-3.06530492206772,-3.01100791573611,-2.95036104942033,-2.9889545098031,-2.92049706221938,-2.94861515478397,-2.96653354710454,-2.99952176681267,-2.86141231215718,-2.64326737180313,-2.45765120520027,-2.36438367594191,-2.33755203205674,-2.34398427545387,-2.3348872455065,-2.32018497488449,-2.37210236801846,-2.40692837155434,-2.54347570995624,-2.56396699963567,-2.50313635493711,-2.57435047826246,-2.56948035111892,-2.49817433860218,-2.47906138679357,-2.42071175026247,-2.43063578293233,-2.41630106907587,-2.41124716354956,-2.55101062365003,-2.72580355621018,-2.5981169612635,-2.47231628257812,-2.33236466841911,-2.2390623693678,-2.21154367706707,-2.17973588004829,-2.14794787454766,-1.91375908137734,-1.79292479470272,-1.65389644813335,-1.52561913695632,-1.49051746584628,-1.5124789825879,-1.33246805665969,-1.37115340623385,-1.2200263161318,-1.16460181885984,-1.16945663113817,-1.16918096356401,-1.04641700387023,-0.981543234750623,-0.99744006486067,-1.14731133601377,-1.09897135617179,-0.980952220178727,-1.02519060065971,-1.11524200821951,-1.06442021698285,-1.17432675828171,-1.39779749927593,-1.89423082139753,-2.23429826424335,-2.57436570708912,-2.91443314993493,-3.2545005927807,-3.59456803562647,-3.93463547847229,-3.64252180397689,-2.93510744364999,-2.44432727244908,-1.93425037105677,-1.71242986304722,-1.58047698421469,-1.43676228888456,-1.45982647592284,-1.31473344272189,-1.27200496872668,-1.44705387831996,-1.29846905584629,-1.1987692831908,-1.12296070029607,-1.04898990122909,-0.97910858018118,-1.09208320530761,-1.7569827203631,1,"prev_rew",5419.0962764606,217.653455188737,"norisk",TRUE,"autists","not_trained"
"10","P304",1627292,"RESPONSE LOSE INV 1_36",1,"1_36",2637,1624475,FALSE,FALSE,FALSE,FALSE,FALSE,FALSE,FALSE,FALSE,FALSE,"unused",FALSE,-1,0,FALSE,3341.98174573963,182.242724843907,0.504002554354239,0.420085845167597,-0.490782698796711,-0.487707171917822,-0.472329537523378,-0.471910147494439,-0.378106577688319,-0.365524876820135,-0.284442804558513,-0.233277221027902,-0.142129788071733,-0.122418456711582,-0.0567140188444044,0.0628121394033319,0.045197758187876,0.050370235211464,0.0937072048685369,0.0633713261085871,0.118171623223337,0.144453398370209,0.205404749242738,0.0526069820324754,0.0570804756744951,0.104611345620962,0.0734366868031306,0.0822438774108601,0.0773509937399014,0.0440793847773719,0.0320568706144431,-0.0228832231766229,-0.0581119856075345,-0.0899856278069307,-0.0322496004896044,-0.0873294909569834,-0.0701344997704666,-0.0634242593074355,-0.0927815613331942,-0.0625854792495542,-0.0473476415314228,-0.0385404509236965,0.0475743016852005,0.0277231736487332,0.0972021217763655,0.201210848953344,0.183736264414201,0.249300905605066,0.32688806095886,0.408109929896795,0.494084885829379,0.594878289451155,0.627730508384742,0.664217440902474,0.699865593362325,0.769344541489957,0.846931696843751,1.02461327243776,1.06389613848175,1.22703885973919,1.33761803070288,1.46105849588739,1.61581341656603,1.72527421411922,1.82718599115151,1.9419590624046,2.03017076515819,2.05589335359981,2.04233307599743,2.03813917570804,2.00976045041647,1.7515559892661,1.18705701031363,0.575865941472566,0.215433413309751,0.0475349838699889,-0.120657892319261,-0.0957941797077427,-0.180294280705221,-0.148979825211077,0.0305191071749967,-0.182950417555172,-0.750524923386529,-0.837465747264536,-0.871182163833541,-1.29279623080521,-1.74538797036901,-1.90235810162395,-1.87028118750062,-1.83816573483405,-1.84130246998746,-2.14206103940755,-2.19644194649336,-2.35273463061146,-1.57015283661049,-0.552293236374496,-0.630719171786167,-0.691810319335009,-0.698939949826982,-0.578714808197678,-0.630579375109854,-0.669862241153846,-0.74870756659446,-0.794141486396232,0.401042357794243,36,"prev_lose",3368.23378644187,143.064917760994,"norisk",TRUE,"autists","not_trained"
"11","P304",1821522,"RESPONSE LOSE INV 4_5",4,"4_5",2152,1819202,FALSE,FALSE,TRUE,FALSE,FALSE,FALSE,FALSE,TRUE,FALSE,"norisk",FALSE,-1,0,FALSE,3341.98174573963,182.242724843907,0.584559808528765,0.669612997728708,0.709231970675303,0.646742856363331,0.479825624845438,0.291100111822696,0.133409460941471,0.0147220827516133,-0.0859315241938501,-0.104804075496126,-0.364965690114883,-0.328338960920838,-0.297443895455636,-0.305831696034424,-0.224609827096489,-0.126192966972037,-0.0959968848883967,-0.11347146942754,-0.136258327666583,-0.11920313315638,-0.02987305699228,-0.0181301361819772,0.277120444191382,0.336114641595528,0.305499169482949,0.303122625985625,0.279077597659764,0.288304178296432,0.221481367018751,0.215470109937285,0.204985359213799,0.171713750251273,0.183037281032636,0.145571771780713,0.0906316779896474,0.0340140240828253,-0.0445517080051593,-0.103126515380367,-0.134720564227137,-0.155130878968856,-0.14198999139542,-0.12325723676946,-0.131225647319308,-0.142968568129611,-0.236492544583104,-0.196370898481234,-0.15624925237936,-0.104524482143497,-0.0775437236150628,0.0179374063068158,0.099998055302629,0.270130610375725,0.349395325845274,0.490869562274176,0.61431002745868,0.694133929633485,0.783883395826524,0.769204744813644,0.895161550171786,0.999449870701387,1.13868736030928,1.24870734456772,1.44106757117461,1.64405234518129,1.67215147712023,1.75519070285024,1.81082978002287,1.8717811308954,1.88799754534772,1.72066092380089,1.10933005828352,0.396926195791744,-0.139194057869157,-0.420045580582262,-0.582629115134445,-0.563896360508485,-0.376988204277812,-0.145624704979562,0.123494447615775,0.351726149674896,0.633077951059808,0.91442975244472,1.25082803377063,1.10359839455468,1.19153050395565,1.27275237289358,1.26352579225691,1.26450436899111,1.119814809007,1.10401778458362,1.02167754223518,1.00769787460386,1.03943172012695,0.961564971420528,0.943950590205072,0.949961847286535,0.788496686144856,0.589705812427567,0.456759173253769,0.296552182198907,0.224696690573953,0.0920296447527807,0.830126971378605,5,"prev_rew",3368.23378644187,143.064917760994,"norisk",TRUE,"autists","trained"
"12","P304",1827848,"RESPONSE LOSE INV 4_6",4,"4_6",3847,1823817,FALSE,FALSE,FALSE,FALSE,FALSE,FALSE,FALSE,TRUE,FALSE,"norisk",FALSE,-1,0,FALSE,3341.98174573963,182.242724843907,1.22118675687544,1.26745757377822,0.0832224541450512,0.0654682762532824,0.0401650778406043,0.105869515707782,0.117752233194398,-0.0195281029451073,-0.0616069025153631,-0.120321506566884,-0.22111491018866,-0.304853119300233,-0.373493287369983,-0.426476227692667,-0.579833181608182,-0.813014037698505,-0.837897846082243,-0.695165439566524,-0.601641463113034,-0.539571738829998,-0.548798319466667,-0.461984583476205,-0.372654507312105,-0.407743473066704,-0.413475136795544,-0.45960803997888,-0.439756911942413,-0.278990734182299,-0.197908661920677,-0.20685564920472,-0.224050640391236,-0.205038292412647,-0.198188255273303,-0.168551359894918,-0.178337127236839,-0.230061897472699,-0.237750714669925,-0.239148681433055,-0.54055031556419,-0.598426139557832,-0.635052868751874,-0.666367324246018,-0.725221724973851,-0.77051584809931,-0.858587754176589,-0.948197423693314,-1.08939206676959,-1.05598066113075,-0.986641509679429,-0.935056536119878,-0.867534741460631,-0.743255496218246,-0.585564845337022,-0.551873846345553,-0.516505287238329,-0.534818651835353,-0.573682127850406,-0.508816470041106,-0.479039777986409,-0.390408685203874,-0.258860012793209,-0.140312431279664,0.0623927493743928,0.160530016146219,0.284250074683352,0.442080522240889,0.549444369649384,0.675401175007525,0.672185851452322,0.432434551575282,-0.193714761631283,-0.863201044494925,-1.40337540176891,-1.70254028907903,-1.77691212087762,-1.75734058619378,-1.66689213661918,-1.43357148385255,-1.1299331029004,-0.903043097244169,-0.629740595051976,-0.469114213968175,-0.3576962629466,-0.260537572908965,-0.144646128245371,-0.0329485838711695,0.0517682019745941,0.169197410077635,0.299767505754109,0.383226121513056,0.437886621951496,0.501913499702914,0.595856866185346,0.729083098711771,0.73523415246955,0.740406629493134,0.674282801597018,0.58852241730716,0.468797942844211,0.32791757136585,0.327584876950092,0.242217874005223,-0.476937002980196,6,"prev_lose",3368.23378644187,143.064917760994,"norisk",TRUE,"autists","trained"
"13","P304",1846055,"RESPONSE REW VAL4_8",4,"4_8",3395,1842476,FALSE,TRUE,TRUE,FALSE,FALSE,FALSE,FALSE,TRUE,FALSE,"norisk",FALSE,-1,0,FALSE,3341.98174573963,182.242724843907,0.138975319310048,0.352235809960668,0.43327333163316,0.210996616295265,0.134388037675663,0.0767918070346462,-0.00932294557424766,-0.0554558487575841,0.265237726704763,0.112859349523439,0.151023842156927,0.0770714003872754,0.0889541178738912,0.0923092381054068,0.0836418441739903,0.128376780594197,0.102514395476266,0.110203212673489,0.156615709209451,-0.0778233169676888,-0.152614538795219,-0.154991082292543,-0.0887274577201135,-0.120041913214258,0.231267134360671,0.155497335798947,0.161089202851474,0.19883430545602,0.20596393594799,0.164584119759302,0.209319056179506,0.249161108928753,0.171434156898647,0.155916725827886,0.189188334790415,0.235600831326378,0.215889499966224,0.327447247664112,0.400001722670633,0.409927286688867,0.440263165448817,0.110343009349802,0.190586301553546,0.181639314269503,0.160669812822532,0.168079036667131,0.178843380743243,0.190166911524607,0.548465792915189,0.518409507507866,0.564542410691202,0.548186199562563,0.590125202456506,0.609137550435095,0.616127384250752,0.660023540613077,0.69483291301505,0.741525002903642,0.87447164207744,1.02279591564568,1.21431736219469,1.40597860542001,1.56157230615653,1.68165765110953,1.82243290415686,1.86185556687716,1.89065368219767,1.85248918956419,1.84773610256954,1.49446990152623,0.697489049865,-0.091383594570064,-0.724662538268599,-1.10672685463242,-1.27951554655546,-1.31055040869698,-1.27280530609243,-1.04586613057073,-0.74164060357807,-0.438065854216549,-0.191198421457646,-0.066779379538951,0.103073582181518,0.223578317163446,0.324930907490474,0.33094216457194,0.238676358205267,0.119988980015409,0.0249272401224729,-0.0143556259215226,-0.030012853668593,-0.00177392505333846,0.0594570191718163,0.0835020474976772,0.0763724170057071,-0.0708334831520317,-0.332672657886548,-0.683282722079909,-1.02298864552084,-1.11679221532696,-1.20584269813844,-1.16977515564964,0.309320278635508,8,"prev_rew",3368.23378644187,143.064917760994,"norisk",TRUE,"autists","trained"
"14","P304",1858852,"RESPONSE REW VAL4_10",4,"4_10",2898,1855771,FALSE,TRUE,FALSE,FALSE,FALSE,FALSE,FALSE,TRUE,FALSE,"norisk",FALSE,-1,0,FALSE,3341.98174573963,182.242724843907,0.466777625428986,0.611066143292156,0.0341538207591383,0.0387671110774742,0.0537582038423189,-0.0070388359448979,0.0750821624358322,0.157203160816492,0.261806214846838,0.075254043595203,-0.121020489948449,-0.0825764039623345,-0.147162468419008,-0.200844392123254,-0.331833877828667,-0.204199512354769,-0.408861846477211,-0.447305932463326,-0.45108044272378,-0.430530331305748,-0.408162863095643,-0.451779426105345,-0.39236583867226,-0.365804470172761,-0.414174120177109,-0.42088436064014,-0.724522741592286,-0.80071193018295,-0.787151652580574,-0.746191226420823,-0.717812501129255,-0.536636008627422,-0.656441760227784,-0.673776548090614,-0.626525271496774,-0.699499136532234,-0.881794002444572,-0.86837352151851,-0.852716293771439,-0.756955570496935,-0.771354628157188,-0.779882225412291,-0.670980614564354,-0.671120411240667,-0.629041611670411,-0.582349521781819,-0.587382202129094,-0.624008931323136,-0.592554679152679,-0.340641068436396,-0.298282675513514,-0.230481287501638,-0.156808439084612,-0.0874692876332964,0.0373691443143408,0.12851657727051,0.280335767746584,0.460254090161597,0.610535517198225,0.812821307823343,0.984491626335882,1.18244371999529,1.29889435136414,1.45295028866122,1.52270883014148,1.53654870109648,1.61078073621876,1.6271369473474,1.62615837061321,1.34600583128167,0.680154262002171,-0.217619993280831,-0.887106276144469,-1.26050319857687,-1.48529625408841,-1.53114956391912,-1.49284527460932,-1.4070808360246,-1.22608854620217,-1.04517520038514,-0.864261854568108,-0.823132027729984,-0.666786714274957,-0.506160333191156,-0.422981310784839,-0.283883617853261,-0.222652673628103,-0.210070972759922,-0.146882875066382,-0.12060109991951,-0.0617466991916761,0.026045613532977,0.0868571677291928,0.1369043778493,0.202049629011222,0.147948315278038,0.0635111227849001,-0.112912282722287,-0.526430851256562,-0.629600798375663,-0.689853165866627,-0.473867300962821,-0.0591138617877794,10,"prev_lose",3368.23378644187,143.064917760994,"norisk",TRUE,"autists","trained"
"15","P304",1862917,"RESPONSE REW VAL4_11",4,"4_11",1582,1861151,FALSE,TRUE,TRUE,FALSE,FALSE,FALSE,FALSE,TRUE,FALSE,"norisk",FALSE,-1,0,FALSE,3341.98174573963,182.242724843907,-0.388582968477666,-0.217480196604518,-0.492600055588781,-0.36482589343857,-0.264032489816794,-0.210070972759922,-0.202801545591639,-0.143807348187492,-0.105642855554004,-0.0367230941316241,0.0471549116562614,0.101116428713133,0.169337206753948,0.188768944761473,0.124881863686368,0.0204537464804501,-0.233696611056841,-0.563337173803233,-0.657420336961978,-0.589758745626415,-0.541948282327323,-0.543625842443079,-0.5044827730754,-0.500848059491258,-0.452059019457971,-0.437939555150344,-0.366922843583269,-0.382859664682965,-0.361330976530742,-0.334490014678617,-0.718651281187133,-0.660915253869807,-0.548239132761412,-0.501547042872823,-0.430110941276809,-0.405227132893067,-0.387053564972359,-0.32037055037099,-0.0314108204317263,-0.0874692876332964,-0.0512619484681904,-0.00918314889793464,0.031777277261817,0.14277583825445,0.165562696493494,0.203727189126982,0.288304178296432,0.370225030615933,0.399691265116711,0.417846677624964,0.560288597540541,0.72642696186182,0.588168048988124,0.671486868070757,0.705737053767475,0.708532987293738,0.650936756652725,0.558111763580797,0.538120838868017,0.487654238718974,0.487794035395287,0.502892076437105,0.559929120372869,0.565241394072767,0.588587439017063,0.623396811419036,0.5368626687812,0.487374645366348,0.372461777436944,-0.0274965134949556,-0.897031840162703,-1.85799419313925,-2.52706108597395,-2.97804516376015,-3.2031178126243,-3.2116454098794,-3.01746782648045,-2.76122051879846,-2.46359339492778,-2.15520192698099,-1.82206644732677,-1.50878209570902,-1.28119310667122,-1.04815204725721,-0.844188696516336,-0.66958264780122,-0.447445729139639,-0.261795742995782,-0.0699947030941536,0.081684690705608,0.153819775683188,0.173391310367029,0.321995177287901,0.307875712980274,0.310671646506534,0.17436988710122,-0.100470378530416,-0.335328794736495,-0.534119668453784,-0.645397822799046,-0.668324477714403,-0.689853165866627,-1.18916611962658,11,"prev_rew",3368.23378644187,143.064917760994,"norisk",TRUE,"autists","trained"
"16","P304",1867368,"RESPONSE REW VAL4_12",4,"4_12",1968,1865216,FALSE,TRUE,TRUE,FALSE,FALSE,FALSE,FALSE,TRUE,FALSE,"norisk",FALSE,-1,0,FALSE,3341.98174573963,182.242724843907,-0.764454895853849,-0.358255449651852,0.175208667159101,0.323393144051031,0.308015509656587,0.310112459801282,0.168917816725009,-0.106062245582943,-0.338823711644324,-0.539152348801059,-0.644419246064855,-0.670002037830159,-0.687057232340363,-0.773870968330825,-0.894375703312753,-0.902064520509978,-0.900526757070532,-0.877180712126239,-0.809519120790676,-0.698939949826982,-0.612266010512833,-0.264032489816794,-0.233696611056841,-0.091383594570064,0.0335946340538862,0.143335024959702,0.193102641727183,0.202608815716474,0.175068870482788,0.177165820627483,0.119988980015409,0.0907714746659604,0.0667264463401027,0.0700815665716182,0.0717591266873744,0.0485528784193916,0.0182169996594418,0.0424018246616157,0.0182169996594418,-0.0525201185550108,-0.0804794538176393,-0.0945989181252665,-0.142688974776985,-0.183928994289363,-0.191198421457646,-0.236212951230478,-0.227825150651691,-0.178197330560526,-0.185746351081435,-0.17526160035795,-0.131085850642995,-0.0560150354628393,-0.00233311175859053,-0.0220444431187448,-0.00289229846384259,0.0706407532768703,0.113138942876065,0.172272936956525,0.181779110945816,0.307036932922392,0.339889151855983,0.395947619057553,0.593340526011709,0.682670602175808,0.687283892494141,0.734255575735359,0.73928825608263,0.746837276603539,0.90033402719537,0.619342707805955,-0.180573874057847,-1.12699737269782,-1.97654177465279,-2.55823574479178,-2.80385850507397,-2.87501501331736,-2.84146381100221,-2.67613517807876,-2.34203089768171,-1.95832323717189,-1.5615587626142,-1.54303228140574,-1.28147270002385,-1.04577550375989,-0.853135683800378,-0.673916344766927,-0.652946843319956,-0.666227527569705,-0.686777638987737,-0.68691743566405,-0.700337916590112,-0.634493682046622,-0.543625842443079,-0.47428669099176,-0.358255449651852,-0.356997279565035,-0.386913768296046,-0.447026339110696,-0.611427230454952,-0.654205013406776,-0.651129486527886,-0.698240966445414,-0.941446409199693,12,"prev_rew",3368.23378644187,143.064917760994,"norisk",TRUE,"autists","trained"
"17","P304",1871182,"RESPONSE REW VAL4_13",4,"4_13",1334,1869664,FALSE,TRUE,TRUE,FALSE,FALSE,FALSE,FALSE,TRUE,FALSE,"norisk",FALSE,-1,0,FALSE,3341.98174573963,182.242724843907,-0.875502687569714,-0.66033589032466,-2.23459275273895,-1.85088509222913,-1.52252616194875,-1.49018913775937,-1.20793964828313,-0.987899679766246,-0.794560876425171,-0.663431594043441,-0.647634569620058,-0.670002037830159,-0.689014385808749,-0.696842999682284,-0.700477713266425,-0.59786695285258,-0.530065564840704,-0.449402882608021,-0.324284857307758,-0.374751457456804,-0.406904693008826,-0.487707171917822,-0.62638547482046,-0.657839726990918,-0.663012204014502,-0.687336825692989,-0.783936329025372,-0.909054354325635,-0.853135683800378,-0.775548528446581,-0.591156712389549,-0.487287781888883,-0.412216966708724,-0.364406503409631,-0.332672657886548,-0.271581510337703,-0.237471121317295,-0.200145408741689,-0.226846573917497,-0.152754335471532,-0.104384685467184,-0.0779631136440018,-0.0958570882120837,-0.0372822808368762,-0.0315506171080394,-0.106901025640821,-0.144925721597997,-0.192736184897092,-0.162260509460826,-0.209232192702041,-0.243202785046135,-0.221254706864973,-0.0743284000598602,-0.106901025640821,-0.110955129253902,-0.125354186914155,-0.127171543706228,-0.206296462499468,-0.263473303111542,-0.230760880854268,-0.212727109609869,-0.145904298332188,-0.0873294909569834,-0.0207862730319245,0.0478538950378265,0.0855989976423756,0.107966465852477,0.15298099562531,0.107127685794599,-0.2928306051373,-1.25533072155329,-2.38265111934247,-3.16509311666713,-3.60908736063767,-3.85736625776981,-3.94082487352876,-3.858344834504,-3.70610625399899,-3.45740796683791,-3.22716284095016,-3.02893115393813,-2.76932872602462,-2.54831018077354,-2.35413259737459,-2.12850076180518,-1.92998948144052,-1.78893463504055,-1.58077738401028,-1.45174505177325,-1.38030895017724,-1.24009288383515,-1.1193085555006,-0.940368809819779,-0.787011855904261,-0.763526014283653,-0.95602603756685,-1.34703734121471,-1.73077921769429,-2.0606993737933,-2.14066307264442,-2.0702055477826,-2.05301055659608,-1.96324944068002,13,"prev_rew",3368.23378644187,143.064917760994,"norisk",TRUE,"autists","trained"
"18","P304",1874794,"RESPONSE REW VAL4_14",4,"4_14",1131,1873479,FALSE,TRUE,TRUE,FALSE,FALSE,FALSE,FALSE,TRUE,FALSE,"norisk",FALSE,-1,0,FALSE,3341.98174573963,182.242724843907,-2.06851173223933,-1.69024959353704,-3.87693779245365,-3.94054528017613,-3.82465383551254,-3.65018758347373,-3.40134949963634,-3.18130953111945,-2.95665627228423,-2.72347541619391,-2.49924154738763,-2.30911806760176,-2.07523822812987,-1.88972803866233,-1.73427413460212,-1.55491499889235,-1.42783982012371,-1.35598432849875,-1.20598249481475,-1.09582271387999,-0.879836848976186,-0.768978084659867,-0.782957752291181,-1.04982960737297,-1.43664701073144,-1.82528177088197,-2.09704650963472,-2.10207918998199,-2.11256394070548,-2.01624403072572,-1.90552506308572,-1.71358422650777,-1.5107392491774,-1.38967532749022,-1.29293602748152,-1.24177044395091,-1.08911247341696,-0.984963949563669,-0.904441064007299,-0.818605904751032,-0.766321947809916,-0.73724423913678,-0.716134941013496,-0.613244587247024,-0.631697748520358,-0.548798319466667,-0.491062292149338,-0.482255101541611,-0.464920313678781,-0.367062640259582,-0.448564102550143,-0.448703899226456,-0.438079351826657,-0.367342233612208,-0.448703899226456,-0.459048853273628,-0.413195543442918,-0.27982951424018,-0.18826269125507,-0.0813182338755174,0.108945042586671,0.295713402141029,0.475771521232358,0.635419325581964,0.671207274718131,0.71482383772783,0.869718555082791,0.928293362457999,0.932487262747392,0.837565319530769,0.529034054907664,0.211136412971578,-0.0290342769344019,-0.197768865244364,-0.234675187791035,-0.200704595446941,-0.0783825036729409,0.00770447476187813,0.16876042973844,0.344663532384135,0.565265465023661,0.69916660998076,0.678057311857472,0.711049327467376,0.806390660712938,0.738729069377378,0.633462172113582,0.533926938578623,0.467383720653567,0.395388432352301,0.387280225126136,0.440542758801446,0.468082704035132,0.388258801860331,0.351212682637347,0.291938891880574,-0.144366534892745,-0.54055031556419,-0.683422518756222,-0.520699187527725,-0.61212621383652,-0.603598616581417,0.449361599132201,14,"prev_rew",3368.23378644187,143.064917760994,"norisk",TRUE,"autists","trained"
"19","P304",1878216,"RESPONSE LOSE INV 4_15",4,"4_15",954,1877078,FALSE,FALSE,TRUE,FALSE,FALSE,FALSE,FALSE,TRUE,FALSE,"norisk",FALSE,-1,0,FALSE,3341.98174573963,182.242724843907,0.692124294356369,0.600807313193629,0.409647693336241,0.080985707324043,-0.112492892693348,-0.235094577819974,-0.215802636488759,-0.162260509460826,-0.0304322436975321,0.0664588884628872,0.246157794902543,0.422060897548168,0.707918252240267,0.649538789889592,0.686584909112576,0.752009753627127,0.807788627476071,0.680993042060049,0.590125202456506,0.485976678603217,0.440682555477759,0.392592498826037,0.409507896659928,0.447672389293416,0.456060189872204,0.339190168474418,0.357643329747752,0.178004600685362,-0.397678112372157,-0.614362960657528,-0.664270374101323,-0.51874203405934,-0.601641463113034,-0.577596434787174,-0.538313568743181,-0.474566284344386,-0.467296857176103,-0.31589705672897,-0.162819696166078,0.0148618794279263,-0.0147750159504616,-0.101588751940924,0.00297916194130724,0.400001722670633,0.475771521232358,0.545110672683674,0.609976330492973,0.664217440902474,0.663937847549845,0.630526441911006,0.594878289451155,0.533926938578623,0.514215607218472,0.468781687416701,0.406292573104725,0.404195622960027,0.471577620942961,0.514634997247411,0.60130893656156,0.745439309840409,0.898796263755927,0.938358723152545,1.02475306911407,1.08612381001554,1.15797930164049,1.25569717838338,1.19404684412928,1.1856590435505,1.11184639845716,0.673024631510201,-0.345533952107355,-1.40505296188467,-2.23558501586104,-2.72487338295704,-2.90870601230883,-2.97063593991555,-2.90800702892726,-2.69048340058401,-2.45692541857621,-2.17866257268902,-1.9002883771236,-1.44459266368284,-1.17592620940742,-1.06786337861736,-0.892698143196996,-0.754019840294358,-0.744933056334006,-0.766601541162542,-0.926528938864778,-1.02382742557872,-1.06646541185423,-0.983705779476852,-0.939110639732959,-0.80923952743805,-0.70998388725572,-0.607652720194497,-0.552852423079748,-0.658259117019857,-0.687756215721928,-0.728996235234306,-0.818186514722092,-0.853275480476691,-0.890446834222206,15,"prev_rew",3368.23378644187,143.064917760994,"norisk",TRUE,"autists","trained"
"20","P304",1881868,"RESPONSE REW VAL4_16",4,"4_16",1174,1880510,FALSE,TRUE,FALSE,FALSE,FALSE,FALSE,FALSE,TRUE,FALSE,"norisk",FALSE,-1,0,FALSE,3341.98174573963,182.242724843907,-0.905226897815681,-0.751238622207721,-2.96770020971297,-2.90507129872468,-2.68013844653684,-2.44590180043179,-2.16752760486637,-1.88915340930094,-1.41735425662884,-1.18053949972576,-1.05751842457019,-0.886966479468156,-0.75010553335759,-0.747169803155014,-0.771214831480875,-0.933239179327809,-1.02634376575236,-1.06283069827009,-0.982307812713722,-0.934916739443565,-0.804626237119717,-0.707187953729457,-0.602759836523539,-0.554110593166565,-0.661754033927685,-0.689573572514001,-0.732630948818448,-0.818745701427344,-0.856630600708207,-0.889343022965481,-1.00369670418963,-0.973081232077053,-0.884450139294522,-0.739480985957792,-0.561240223658535,-0.195252525070727,0.0541447454719186,0.107267482470912,0.202049629011222,0.271528577138855,0.299487912401483,0.302004252575121,0.235321237973752,0.250698872368196,0.288443974972745,0.194360811814,0.205824139271677,0.200232272219153,0.200651662248092,0.208480276121627,0.232804897800114,0.251118262397135,0.157454489267332,0.1369043778493,0.14682994186753,0.11383792625763,0.0573600690271211,0.069522379866363,0.0924490347817198,0.117053249812833,0.111880772789245,0.126559423802127,0.139840108051873,0.223438520487133,0.299627709077796,0.323952330756283,0.344502442174315,0.38867819188927,0.353030039429416,-0.103126515380367,-1.08813389668277,-2.01792159084148,-2.64449029407699,-2.960570579221,-3.0903018948396,-3.0381577345748,-2.86075575233342,-2.64155456387441,-2.27249133840771,-2.03749312552532,-1.83213180802132,-1.5670773097316,-1.33068113008607,-1.14796687414479,-0.977275132366447,-0.838457032787496,-0.699638933208547,-0.560121850248031,-0.368320810346399,-0.236073154554165,-0.134440970874511,0.0489722684483306,0.1209675567496,0.160949406175161,0.211555803000517,0.201071052277031,0.104331752268336,-0.0494445916761212,-0.268226390106187,-0.410818999945594,-0.530484954869643,-0.657560133638291,-1.2656465512929,16,"prev_lose",3368.23378644187,143.064917760994,"norisk",TRUE,"autists","trained"
"21","P304",1885548,"RESPONSE REW VAL4_17",4,"4_17",1206,1884158,FALSE,TRUE,TRUE,FALSE,FALSE,FALSE,FALSE,TRUE,FALSE,"norisk",FALSE,-1,0,FALSE,3341.98174573963,182.242724843907,-0.959473581514583,-0.644545216696244,-2.93149287054787,-2.73116423339113,-2.4170411017155,-2.12892015183412,-1.9192251373644,-1.67695749731373,-1.41805405278179,-1.21283253195409,-1.03934485664948,-0.90136553712841,-0.75318106023648,-0.611846620483894,-0.44982227263696,-0.291153045021544,-0.178476923913152,-0.0347659406632387,0.135366614409854,0.12544105039162,0.193382235079809,0.222459943752942,0.152701402272683,0.00940980905171231,-0.185886147757748,-0.356857482888722,-0.47834079460484,-0.605695566726115,-0.718371687834507,-0.865158197963307,-1.09764007067206,-1.19885286432278,-1.36031802546446,-1.39065390422441,-1.39317024439805,-1.33641279381491,-1.30188301476556,-1.11301770506651,-1.04046323005999,-0.956165834243163,-0.870610268339521,-0.841392762990072,-0.823358991745677,-0.795399656483049,-0.829649842179769,-0.788549619343705,-0.809938510819615,-0.818605904751032,-0.752901466883854,-0.585704642013335,-0.578714808197678,-0.504902163104339,-0.487287781888883,-0.418368020466503,-0.328618554273467,-0.265710049932553,-0.186445334463,-0.0699947030941536,0.101256225389446,0.158013675972584,0.257688706183853,0.370784217321188,0.442220318917202,0.510301300281701,0.581877198554032,0.617105960984944,0.682950195528434,0.627590711708429,0.523442187855137,0.020174153127824,-0.900386960394219,-1.84289615209743,-2.49085374680884,-2.79407273773205,-2.92659998687691,-2.87605613066989,-2.56644328123535,-2.15257154215038,-1.71563335147375,-1.73287616783898,-1.41749486607653,-1.17271088585222,-0.972382248695488,-0.847124426718912,-0.831746792324468,-0.918141138285988,-0.939669826438211,-0.917721748257048,-0.856071414002951,-0.747030006478701,-0.609749670339196,-0.487567375241509,-0.376289220896247,-0.256483469295885,-0.242923191693509,-0.32875835094978,-0.530484954869643,-0.835800895937548,-1.08366040304075,-1.09987681749307,-1.12755655940308,-1.06101334147802,-1.00634701617807,17,"prev_rew",3368.23378644187,143.064917760994,"norisk",TRUE,"autists","trained"
"22","P304",1889107,"RESPONSE REW VAL4_18",4,"4_18",1083,1887840,FALSE,TRUE,TRUE,FALSE,FALSE,FALSE,FALSE,TRUE,FALSE,"norisk",FALSE,-1,0,FALSE,3341.98174573963,182.242724843907,-0.910544744804983,-0.932033620893361,-2.84398015117584,-2.91276011592191,-2.85129740352284,-2.4919463682,-2.07807462911504,-1.68066946695584,-1.70268008575535,-1.37164155624582,-1.13510557992398,-0.934077959385687,-0.839295812845377,-0.844747883221588,-0.931421822535737,-0.93295958597518,-0.902064520509978,-0.842091746371637,-0.721307418037084,-0.59479142597369,-0.460586616713072,-0.349168665691497,-0.259558996174774,-0.240127258167246,-0.357556466270287,-0.58500565863177,-0.896332856781138,-1.08477877645125,-1.1172116053559,-1.12895452616621,-1.00537426430539,-1.15956999827878,-1.11707180867959,-1.07946650275135,-1.0299784793365,-0.920657478459625,-0.851178530331993,-0.747309599831327,-0.692089912687638,-0.705929783642639,-0.627224254878339,-0.59926491961571,-0.619675234357429,-0.616459910802227,-0.543346249090453,-0.489943918738833,-0.480158151396913,-0.390268888527561,-0.412216966708724,-0.247396685335529,-0.276055003979726,-0.324284857307758,-0.290174468287353,-0.262215133024725,-0.332393064533922,-0.336447168147003,-0.316176650081596,-0.221254706864973,-0.114030656132792,0.0621131560217668,0.236579408060569,0.471158230914022,0.711049327467376,0.759279180795411,0.796325300018391,0.912496338034615,0.965758871709922,0.984631423012195,0.972748705525579,0.783603802473897,0.283551091301787,-0.517204270619897,-1.13552496995292,-1.4692196363124,-1.58553047100493,-1.57812124716033,-1.49270547793301,-1.30677589843652,-1.10379112442984,-0.830908012266586,-0.722705384800214,-0.523774714406612,-0.421862937374331,-0.265430456579924,-0.100050988501477,0.0117863525490367,0.105170532326217,0.213652753145215,0.339190168474418,0.414959967036139,0.509602316900136,0.600889546532618,0.640591802605552,0.636397902316159,0.678756295239041,0.704898273709597,0.631505018645197,0.500235939587158,0.30955327309603,0.262581589854815,0.305778762835575,0.25209683913133,-0.244682299870449,18,"prev_rew",3368.23378644187,143.064917760994,"norisk",TRUE,"autists","trained"
"23","P304",1892487,"RESPONSE LOSE INV 4_19",4,"4_19",898,1891405,FALSE,FALSE,TRUE,FALSE,FALSE,FALSE,FALSE,TRUE,FALSE,"norisk",FALSE,-1,0,FALSE,3341.98174573963,182.242724843907,-0.0820752723552167,0.156660896013885,0.533088158520745,-0.216222026517698,-0.916183984817605,-1.35933944873026,-1.5532374387766,-1.60188668213357,-1.53744041435321,-1.38897634410865,-1.18976608036242,-0.93869124970402,-0.751503500120724,-0.604018006610356,-0.46128560009464,-0.329037944302406,-0.171207496744869,-0.0262383434081384,0.0614141726402017,0.174789277130159,0.292917468614765,0.391893515444472,0.483879728458519,0.545809656065242,0.630526441911006,0.652614316768481,0.641710176016057,0.694972709691363,0.691617589459848,0.526937104762966,0.40433541963634,0.267334676849461,0.303961406043503,0.254333585952338,0.298928725696231,0.337792201711284,0.3411473219428,0.311650223240728,-0.00918314889793464,-0.0828559973149605,-0.10326631205668,0.0766520103583331,0.239095748234206,0.249440702281379,0.264818336675824,0.248881515576127,0.271528577138855,0.241052901702589,0.239515138263146,0.289422551706937,0.16724025660925,0.236439611384256,0.190446504877233,0.258667282918045,0.228610997510721,0.289702145059563,0.361977026713458,0.431595771517404,0.466684737272002,0.563424037280698,0.666034797694543,0.72768513194864,0.876149202193196,0.95094042402073,1.07130536232634,1.13966593704347,1.17028140915605,1.17517429282701,1.2027142380607,1.00308458428553,0.235880424679004,-0.700757306619051,-1.36912521607219,-1.77271822058823,-1.95515288317688,-1.89490051568592,-1.74839359890974,-1.41916420285838,-1.06454115172143,-0.739719462640923,-0.418104873781704,-0.488685748652013,-0.54055031556419,-0.396979128990592,-0.313520513231646,-0.333651234620739,-0.438079351826657,-0.572983144468838,-0.689293979161375,-0.724802334944912,-0.714317584221427,-0.684540892166726,-0.611007840426013,-0.55886368016121,-0.540410518887877,-0.598985326263084,-0.686218452282485,-0.921496258517503,-0.981469032655841,-0.962456684677255,-0.873825591894724,-1.06870215867524,-0.263782020771733,19,"prev_rew",3368.23378644187,143.064917760994,"norisk",TRUE,"autists","trained"
"24","P304",1895783,"RESPONSE LOSE INV 4_20",4,"4_20",829,1894771,FALSE,FALSE,FALSE,FALSE,FALSE,FALSE,FALSE,TRUE,FALSE,"norisk",FALSE,-1,0,FALSE,3341.98174573963,182.242724843907,-0.430359417096849,-0.479080894655903,1.20033769456337,1.03747456665856,0.316962496940626,-0.631278358491419,-1.33026174005713,-1.74867319226237,-1.9478834560086,-1.90230973953051,-1.76992228706197,-1.44899187958328,-1.09052688684792,-0.76570519776734,-0.441013437362436,-0.464920313678781,-0.546841165998282,-0.408302659771956,-0.322886890544627,-0.325263434041952,-0.428153787808423,-0.561799410363787,-0.679927601848393,-0.729974811968497,-0.710543073960972,-0.687197029016676,-0.618137470917983,-0.565014733918989,-0.535377838540605,-0.597447562823638,-0.676572481616878,-0.901924723833665,-0.981748626008467,-0.962037294648316,-0.89996757036528,-1.03333359956802,-1.08855328671171,-1.01893454190776,-0.968328145082408,-0.793162909662037,-0.74870756659446,-0.536636008627422,-0.461984583476205,-0.385795394885542,-0.307509256150183,-0.22111491018866,-0.160163559316128,-0.0806192504939523,0.00633428217282279,0.25209683913133,0.303122625985625,0.338211591740223,0.366310723679165,0.393151685531289,0.384624088276189,0.406572166457352,0.382527138131491,0.379172017899975,0.375117914286894,0.395668025704927,0.452006086259123,0.505408416610742,0.625074371534792,0.643807126160755,0.687144095817828,0.72502899509869,0.768086371403137,0.753407720390258,0.577263908235699,0.140678888109755,-0.747868786536582,-1.68045241422155,-2.34518561009055,-2.61639116213804,-2.68279458338679,-2.61555238208017,-2.45548518770162,-2.23609522920833,-1.91698215757053,-1.59197714575975,-1.23607795890842,-1.15341894452101,-1.00411609421857,-0.883331765884015,-0.613244587247024,-0.613943570628589,-0.611986417160207,-0.642741685949096,-0.685239875548294,-0.648053959648997,-0.646655992885867,-0.660915253869807,-0.617718080889044,-0.55606774663495,-0.621772184502125,-0.70565019029001,-0.792463926280472,-0.996427277021349,-1.02955908930756,-1.12755655940308,-1.19689571085439,-1.16250572848136,-0.894684420972944,20,"prev_lose",3368.23378644187,143.064917760994,"norisk",TRUE,"autists","trained"
"25","P304",1899640,"RESPONSE REW VAL4_21",4,"4_21",1387,1898069,FALSE,TRUE,FALSE,FALSE,FALSE,FALSE,FALSE,TRUE,FALSE,"norisk",FALSE,-1,0,FALSE,3341.98174573963,182.242724843907,-0.748199468375571,-0.624291738392424,-1.54647644410622,-1.21243362169305,-1.12420143917156,-0.986921103032055,-0.869352098252701,-0.591016915713236,-0.611846620483894,-0.611986417160207,-0.652807046643643,-0.684680688843039,-0.637010022220259,-0.657699930314604,-0.656441760227784,-0.601501666436721,-0.564735140566363,-0.631418155167732,-0.708166530463648,-0.822939601716738,-1.00733141777377,-1.02690295245761,-1.15998938830772,-1.18934669033349,-1.16544145868394,-1.1543975212552,-0.960499531208869,-0.973221028753366,-0.970704688579729,-0.859845924263409,-0.740878952720925,-0.442972235497616,-0.396839332314279,-0.292131621755735,-0.203919919002143,-0.0820172172570824,-0.00526884196116703,0.0709203466294963,0.184854637824706,0.278658207630825,0.375117914286894,0.440542758801446,0.560628103754434,0.70769420723586,0.677218531799594,0.749353616777177,0.862449127914508,0.819391751610061,0.835048979357132,0.780528275595008,0.747676056661418,0.674143004920705,0.532528971815493,0.502752279760792,0.46486738047993,0.372321980760631,0.3570841430425,0.446274422530283,0.511279877015896,0.574887364738375,0.67749812515222,0.74376174972465,0.870557335140673,0.952478187460173,1.04865830076362,1.12037399571226,1.11030863501771,1.23193174341014,1.21166122534474,1.01091319815907,0.508623740165945,-0.263053913082603,-1.01557942167625,-1.50193205856967,-1.73357515122055,-1.89042702204389,-1.8511441559999,-1.70100252563959,-1.45496037532846,-1.17096398658501,-0.880116442328812,-0.527898157171147,-0.405227132893067,-0.331833877828667,-0.286260161350582,-0.254805909180125,-0.168691156571231,-0.165336036339716,-0.266409033314118,-0.298282675513514,-0.19804845859699,-0.152894132147845,-0.109277569138146,-0.101448955264611,-0.0494445916761212,-0.146323688361127,-0.315337870023718,-0.491481682178277,-0.673077564709049,-0.823918178450929,-0.909473744354574,-1.06996032876206,-0.258469747071832,21,"prev_lose",3368.23378644187,143.064917760994,"norisk",TRUE,"autists","trained"
"26","P304",1903035,"RESPONSE REW VAL4_22",4,"4_22",917,1901934,FALSE,TRUE,TRUE,FALSE,FALSE,FALSE,FALSE,TRUE,FALSE,"norisk",FALSE,-1,0,FALSE,3341.98174573963,182.242724843907,-0.271079449849053,-0.165416971257591,0.580339435114589,-0.190499438076081,-0.940368809819779,-1.4756502834228,-1.70939032621838,-1.88595352840187,-1.85799419313925,-1.72085365367605,-1.47369312995442,-1.20831765849588,-0.909194151001948,-0.570088794082453,-0.396140348932714,-0.345533952107355,-0.28737853476109,-0.262494726377351,-0.174422820300068,-0.15932477925825,-0.256623265972198,-0.304014339242354,-0.199027035331181,-0.169110546600171,-0.102008141969863,-0.108718382432894,-0.0539180853181409,-0.127451137058854,-0.297863285484575,-0.467576450528729,-0.66245301730925,-0.80784156067492,-0.914786018054472,-1.04311936690994,-1.10728604133767,-1.04982960737297,-0.963435261411446,-0.838876422816438,-0.744513666305067,-0.613803773952276,-0.570047414266264,-0.448144712521204,-0.40354957277731,-0.316735836786848,-0.273678460482401,-0.221813893570225,-0.147581858447947,-0.091383594570064,0.0155608628094913,0.0598764092007586,0.156056522504199,0.287605194914867,0.302982829309312,0.288304178296432,0.359460686539821,0.389936361976087,0.455361206490638,0.526797308086653,0.647861229773836,0.76375267443743,0.867062418232844,1.00685909454599,1.08067173963933,1.16189360857726,1.20886529181848,1.22494190959449,1.17042120583236,1.172937546006,1.15965686175625,0.949961847286535,0.370504623968559,-0.512311386948935,-1.12657798266888,-1.53855878776372,-1.69848618546595,-1.7138638198604,-1.59657440843367,-1.46487858162688,-1.22908573500541,-0.989959841311947,-0.649459284131941,-0.573961721203032,-0.37055755716741,-0.21803938330977,-0.0507027617629384,0.00409753535181454,-0.0213454597371797,-0.0209260697082407,-0.011000505690007,-0.0181301361819772,-0.0170117627714699,0.0205935431567631,0.0800071305898487,0.12977474735733,0.168778020048696,0.0865775743765668,-0.0223240364713708,-0.185466757728809,-0.342738018581095,-0.37377288072261,-0.50713890992535,-0.724103351563347,-0.176211052784576,22,"prev_rew",3368.23378644187,143.064917760994,"norisk",TRUE,"autists","trained"
"27","P304",1906477,"RESPONSE LOSE INV 4_23",4,"4_23",960,1905333,FALSE,FALSE,TRUE,FALSE,FALSE,FALSE,FALSE,TRUE,FALSE,"norisk",FALSE,-1,0,FALSE,3341.98174573963,182.242724843907,-0.117163773669049,-0.0215445640943178,-0.37642901757256,-1.04311936690994,-1.4915871045225,-1.68772184138984,-1.7181975168261,-1.62061943675953,-1.49177840523744,-1.2673458779964,-1.02821998430287,-0.692965481344514,-0.59479142597369,-0.397258722343218,-0.24557932854346,-0.0785223003492539,0.00731285890701708,-0.0165923727425308,-0.0319700071369784,-0.0149148126267746,-0.000236161613895294,-0.0277761068475816,0.0212925265383313,0.0637907161375262,0.13257068088359,0.161508592880413,0.0994388685973769,-0.00582802866641909,-0.150098198621581,-0.335188998060182,-0.355878906154528,-0.473308114257569,-0.714736974250366,-0.665388747511827,-0.590038338979041,-0.508816470041106,-0.479179574662722,-0.337845134910133,-0.212587312933556,-0.147581858447947,-0.0203668830029854,0.106848092441973,0.109644025968237,0.126419627125814,0.0844806242318715,0.108945042586671,0.131312510796773,0.183177077708949,0.204006782479608,0.302283845927747,0.726566758538133,0.777173155363492,0.822746871841577,0.903549350750573,1.01091319815907,1.08444624989978,1.15923747172731,1.27149420280676,1.37522333663112,1.45644520556905,1.49335152811572,1.54395792494108,1.54255995817795,1.61832975673967,1.61623280659497,1.60630724257674,1.57247644690896,1.58533774112977,1.52131086337835,1.22130719601035,0.417056917180837,-0.391387261938068,-0.987200696384681,-1.3330576735834,-1.53464448082695,-1.50584636550644,-1.49578100481189,-1.39764373804007,-1.23547959351682,-1.07722975593035,-0.942325963288161,-0.824337568479868,-0.691810319335009,-0.574520907908284,-0.454295766278983,-0.339662491702205,-0.195951508452295,-0.0839743707254678,0.0379283310195929,0.0794479438845966,0.20009247554284,0.271388780462542,0.318779853732698,0.395947619057553,0.406851759809978,0.301445065869869,0.179682160801121,-0.0867703042517281,-0.348609478986244,-0.367482030288521,-0.385515801532916,-0.446327355729131,-0.0868460274513973,23,"prev_rew",3368.23378644187,143.064917760994,"norisk",TRUE,"autists","trained"
"28","P304",1913822,"RESPONSE REW VAL4_25",4,"4_25",958,1912680,FALSE,TRUE,TRUE,FALSE,FALSE,FALSE,FALSE,TRUE,FALSE,"norisk",FALSE,-1,0,FALSE,3341.98174573963,182.242724843907,-2.38937064862117,-1.82910387150033,-3.11252956637339,-4.11752787238857,-4.81525308386746,-4.99684896639824,-5.08324331235976,-5.02480830166086,-4.81427450713327,-4.45387867559799,-4.11305437874655,-3.76677801151889,-3.44538545267498,-3.11224997302076,-2.84943222155205,-2.56466639190218,-2.29653636673358,-2.01400728390471,-1.75943753633848,-1.44755115148386,-1.21464988874616,-0.967629161700839,-0.768698491307237,-0.605695566726115,-0.437240571768779,-0.253128349064369,-0.132763410758755,-0.0932009513621332,-0.136258327666583,-0.160443152668754,-0.186445334463,-0.286399958026895,-0.37642901757256,-0.465898890412972,-0.548658522790354,-0.573821924526719,-0.480857134778478,-0.45247840948691,-0.384677021475037,-0.293669385195182,-0.247396685335529,-0.181692247468355,-0.158625795876685,-0.164637052958151,-0.166873799779159,-0.19217699819184,-0.229083320738508,-0.218179179986083,-0.281507074355937,-0.327639977539273,-0.329177740978719,-0.277732564095482,-0.266129439961492,-0.347910495604679,-0.324704247336697,-0.231459864235833,-0.14772165512426,-0.060628325781172,0.124742067010055,0.205404749242738,0.311370629888102,0.541336162423219,0.587049675577617,0.720136111427731,0.70629624047273,0.749773006806116,0.781227258976573,0.807369237447129,0.817714191494302,0.653592893502672,0.178144397361675,-0.385096411503976,-0.809938510819615,-1.10518909119297,-1.2926564341289,-1.31963719265733,-1.29629114771304,-1.2245754527644,-1.12699737269782,-1.03375298959696,-0.974479198840184,-0.839854999550629,-0.691111335953444,-0.561380020334848,-0.337425744881194,-0.212167922904617,-0.141011414661229,-0.116267402953803,-0.0750273834414253,0.0361109742275237,0.0211527298620183,0.000462821767672962,-0.0367230941316241,-0.104524482143497,-0.144646128245371,-0.203640325649517,-0.436401791710898,-0.748288176565521,-1.03752749985741,-1.11874936879535,-1.20766005493051,-1.16012918498404,-0.300385450519724,25,"prev_rew",3368.23378644187,143.064917760994,"norisk",TRUE,"autists","trained"
"29","P304",1917314,"RESPONSE REW VAL4_26",4,"4_26",1018,1916112,FALSE,TRUE,TRUE,FALSE,FALSE,FALSE,FALSE,TRUE,FALSE,"norisk",FALSE,-1,0,FALSE,3341.98174573963,182.242724843907,-0.36772957722696,-0.134594593595748,-0.750524923386529,-1.06199191821221,-1.27727879973445,-1.31949739598102,-1.31236776548905,-1.23058670984586,-1.14181582038702,-1.04479692702569,-0.979372082511145,-0.877180712126239,-0.705230800261071,-0.598426139557832,-0.357556466270287,-0.241245631577753,-0.143527754834866,-0.123816423474712,-0.0954376981831446,0.0373691443143408,0.0300997171460577,0.00899041902277326,-0.0371424841605632,-0.0919427812753161,-0.143947144863805,-0.179735093999969,-0.405087336216754,-0.685239875548294,-1.00425589089488,-1.10938299148237,-1.19368038729919,-1.17368946258641,-1.20164879784904,-1.47005841637027,-1.53380570076907,-1.56763649643685,-1.62047964008322,-1.61908167332009,-1.58063758733397,-1.51772908299306,-1.49941571839604,-1.42923778688684,-1.36968440277744,-1.2714073393293,-1.23212447328531,-1.16418328859712,-1.15585594063513,-1.16869078683605,-1.11768389142455,-1.06667699601297,-0.894016765900609,-1.0341723796259,-1.13244944307404,-1.09945742746413,-1.14880565420267,-1.20766005493051,-1.40323560509259,-1.64340629499857,-1.74378030859141,-1.72448836726019,-1.64340629499857,-1.49745856492765,-1.34172506751481,-1.17900173628631,-1.08785430333014,-1.0512275741361,-0.988039476442559,-0.913248254615029,-0.936174909530382,-1.24540515753506,-1.97276726439234,-2.86928334958852,-3.53751146236534,-3.93635137988674,-4.05014587440563,-3.9966037473777,-3.8232558687494,-3.49529286611877,-3.15754409614622,-2.8202147162026,-2.5488693674788,-2.3095374576307,-1.98492957523158,-1.67569932722691,-1.49130751116987,-1.29014009395526,-1.11553404524015,-0.978812895805893,-0.863620434523864,-0.739341189281479,-0.66385098407238,-0.526570647932875,-0.411937373356098,-0.375869830867308,-0.279549920887554,-0.316036853405283,-0.411517983327159,-0.574381111231971,-0.631278358491419,-0.740179969339357,-0.92135646184119,-0.991394596674074,-2.23758876822153,26,"prev_rew",3368.23378644187,143.064917760994,"norisk",TRUE,"autists","trained"
"30","P304",1920699,"RESPONSE LOSE INV 4_27",4,"4_27",905,1919610,FALSE,FALSE,TRUE,FALSE,FALSE,FALSE,FALSE,TRUE,FALSE,"norisk",FALSE,-1,0,FALSE,3341.98174573963,182.242724843907,-1.44123800789209,-1.05284748613792,-1.71861690685504,-2.61457380534597,-3.36486256711861,-3.85107540733572,-4.03295088321912,-4.04175807382685,-3.87917453927466,-3.59566687971161,-3.272177370723,-2.92310506996908,-2.61443400866966,-2.3872644096608,-2.08152907856396,-1.75090993908338,-1.55924869585806,-1.3639527390486,-1.1320300530451,-1.02592437572342,-0.897870620220581,-0.774989341741329,-0.680906178582584,-0.579693384931869,-0.441434472058173,-0.382300477977713,-0.296744912074068,-0.305552102681798,-0.369578980433216,-0.528388004724948,-0.61799767424167,-0.675593904882686,-0.90262370721523,-0.96008014117993,-1.00481507760014,-0.994330326876651,-0.954068884098467,-0.924292192043767,-0.925550362130584,-0.926668735541091,-0.855372430621386,-0.770096458070371,-0.735287085668398,-0.663291797367128,-0.647494772943745,-0.677551058351069,-0.689433775837688,-0.646534181746889,-0.715925654761223,-0.816072396564518,-0.895283155422131,-0.918280934962301,-1.11874936879535,-1.12294326908474,-1.19032526706768,-1.18892730030455,-1.30146362473663,-1.41218259237664,-1.50346982200912,-1.5670773097316,-1.36674867257486,-1.10798502471924,-0.853415277153004,-0.723404368181782,-0.612825197218085,-0.588220982186972,-0.561659613687474,-0.39376380543539,-0.398516892430039,-0.502246026254388,-0.857469380766085,-1.34997307141729,-1.7075729694263,-1.954314103119,-2.04490234936992,-2.00799602682325,-1.84974618923677,-1.60747854918609,-1.51129843588265,-1.3362729971386,-1.23030711649324,-1.25169600796915,-1.25616950161117,-1.21548866880404,-1.10309214104828,-1.09526352717474,-1.13412700318979,-1.13706273339237,-1.02969888598388,-0.914786018054472,-0.809099730761737,-0.668743867743342,-0.53607682192217,-0.415572086940239,-0.359234026386043,-0.449682475960647,-0.767580117896733,-1.08827369335908,-1.33487503037546,-1.44601338804441,-1.39946109483214,-1.47676865683331,-1.16721221658391,27,"prev_rew",3368.23378644187,143.064917760994,"norisk",TRUE,"autists","trained"
"31","P304",1923975,"RESPONSE LOSE INV 4_28",4,"4_28",799,1922992,FALSE,FALSE,FALSE,FALSE,FALSE,FALSE,FALSE,TRUE,FALSE,"norisk",FALSE,-1,0,FALSE,3341.98174573963,182.242724843907,-1.16157498914803,-1.13606928467137,-0.377826984335693,-0.4151526969113,-0.65839891369617,-1.12923411951883,-1.55617316897917,-1.85156354602884,-2.01666342075466,-2.04839726627775,-1.92369863100642,-1.75021095570181,-1.54401085813993,-1.41120401564244,-1.28273087011067,-1.20905802169364,-1.28832273716319,-1.22583362285121,-1.15747304813409,-1.08324101301181,-1.11413607847701,-1.14894545087899,-1.09037064350378,-0.960219937856243,-0.861383687702852,-0.746470819773449,-0.603319023228791,-0.447585525815952,-0.391387261938068,-0.37335349069367,-0.592834272505305,-0.94442291343286,-1.23506020348788,-1.41162340567138,-1.45048688168644,-1.4214091730133,-1.42825921015265,-1.28636558369481,-1.08142365621974,-0.917721748257048,-0.787710839285827,-0.67405614144324,-0.644559042741168,-0.514408337093633,-0.55746571339808,-0.556207543311263,-0.506020536514843,-0.444649795613375,-0.222233283599164,-0.200285205418002,-0.205597479117899,-0.162260509460826,-0.130946053966682,-0.133322597464007,-0.0929213580095072,-0.0631446659548095,0.0313578872328748,0.0271639869434812,0.0735764834794468,0.202049629011222,0.306058356188201,0.397065992468057,0.521904424415694,0.579920045085646,0.698887016628131,0.797583470105212,0.883698222714106,0.922701495405472,0.955693511015375,0.594738492774842,-0.433046671479382,-1.58930498126538,-2.33749679289332,-2.82259125969993,-3.02837196723288,-3.05115882547192,-2.95805423904737,-2.82622597328407,-2.56690313872319,-2.30017108031772,-2.03959007567002,-1.77761110425919,-1.64116954817756,-1.41358055913977,-1.25491133152435,-1.11036156821656,-0.975877165603317,-0.862222467760731,-0.762128047520522,-0.614223163981215,-0.462124380152518,-0.39502197552221,-0.309746002971191,-0.276194800656039,-0.17931570397103,-0.236352747906791,-0.398377095753726,-0.573122941145154,-0.727178878442237,-0.778763852001784,-0.794700673101484,-0.738083019194661,-1.13314260159409,28,"prev_lose",3368.23378644187,143.064917760994,"norisk",TRUE,"autists","trained"
"32","P304",1927276,"RESPONSE LOSE INV 4_29",4,"4_29",818,1926274,FALSE,FALSE,FALSE,FALSE,FALSE,FALSE,FALSE,TRUE,FALSE,"norisk",FALSE,-1,0,FALSE,3341.98174573963,182.242724843907,-1.21440512845239,-0.921915648546442,0.953596560870677,0.581178215172467,-0.458909056597315,-1.60789793921503,-2.348960120351,-2.83041987357346,-3.03046891737757,-3.04948126535616,-2.95539810219741,-2.82287085305256,-2.5606122882891,-2.29457921326519,-2.03539617538062,-1.77299781394086,-1.63669605453554,-1.41064482893719,-1.25155621129283,-1.10840441474818,-0.973360825429679,-0.859146940881841,-0.760590284081076,-0.60947007698657,-0.461844786799892,-0.39236583867226,-0.31016539300013,-0.272839680424523,-0.17805753388421,-0.240546648196185,-0.401312825956299,-0.578015824816113,-0.727738065147489,-0.779602632059665,-0.793302706338353,-0.739061595928853,-0.748148379889208,-0.685379672224607,-0.731652372084256,-0.883331765884015,-0.665947934217079,-0.491481682178277,-0.628901814994095,-0.576897451405608,-0.527409427990753,-0.475964251107519,-0.463522346915648,-0.526570647932875,-0.521677764261916,-0.513569557035752,-0.444509998937062,-0.452198816134284,-0.496094972496609,-0.469393807320801,-0.437659961797718,-0.417389443732312,-0.326661400805082,-0.295346945310938,-0.194833135041788,-0.179455500647343,-0.107460212346074,-0.0448313013577854,-0.011280099042633,0.056800882321869,0.130054340709956,0.13424824099935,0.230288557626477,0.315145140148557,0.377075067755277,0.270130610375725,-0.125913373619411,-0.602899633199852,-1.01334267485524,-1.30621671173127,-1.3554251417935,-1.32397088962304,-1.16194654177611,-1.01655799841044,-0.86795413148957,-0.696703203005971,-0.588360778863285,-0.422561920755896,-0.346232935488923,-0.250192618861793,-0.150377791974211,-0.0193883062687943,0.122505320189047,0.158712659354149,0.25754890950754,0.301165472517243,0.378612831194723,0.480664404903316,0.518269710831553,0.548745386267815,0.568736310980596,0.615987587574439,0.597394629624789,0.602567106648377,0.453963239727505,0.37008523393962,0.301305269193556,0.0365303642564627,-0.406065912950948,29,"prev_lose",3368.23378644187,143.064917760994,"norisk",TRUE,"autists","trained"
"33","P304",1930639,"RESPONSE REW VAL4_30",4,"4_30",882,1929572,FALSE,TRUE,FALSE,FALSE,FALSE,FALSE,FALSE,TRUE,FALSE,"norisk",FALSE,-1,0,FALSE,3341.98174573963,182.242724843907,-0.0905513166831886,0.137802247223988,0.191145488258798,-0.2598385895274,-0.70425222352688,-1.12098611561636,-1.32285251621254,-1.35766188861451,-1.30719528846547,-1.11455546850595,-0.975317978898065,-0.822520211687799,-0.663152000690815,-0.545023809206209,-0.408442456448269,-0.312262343144829,-0.232997627675276,-0.111374519282841,0.0182169996594418,0.1454319751044,0.17562805718804,0.277539834220321,0.295713402141029,0.43327333163316,0.479266438140186,0.532808565168119,0.547906606209937,0.585092522109234,0.615009010840245,0.590824185838074,0.572650617917363,0.435649875130484,0.348556545787396,0.304520592748758,-0.119902116537945,-0.256623265972198,-0.335188998060182,-0.442413048792364,-0.507278706601663,-0.596468986089447,-0.608211906899753,-0.554250389842878,-0.513289963683126,-0.461984583476205,-0.379504544451449,-0.334070624649678,-0.296884708750381,-0.29324999516624,-0.241385428254066,-0.237191527964669,0.0144424893989872,-0.0416159778025828,-0.0592303590180387,-0.085651930841224,-0.190219844723455,-0.253687535769621,-0.263473303111542,-0.25270895903543,-0.191478014810272,-0.141710398042794,-0.0316904137843524,0.069662176542676,0.232944694476427,0.396227212410179,0.49366549580044,0.543433112567918,0.656528623705249,0.741525002903642,0.746138293221974,0.698887016628131,0.260764233062743,-0.414733306882361,-1.00034158395812,-1.36311395899072,-1.54526902822675,-1.49941571839604,-1.38757837734552,-1.22020551221591,-1.25542909699215,-1.30461681643568,-1.42574286997901,-1.27294510276874,-1.28510741360799,-0.891927990598411,-0.110467111765671,-0.0990724117672862,-0.496654159201865,-0.852576497095123,-1.06478785173847,-0.942465759964474,-0.997266057079227,-0.861663281055478,-0.719350264568698,-0.543625842443079,-0.387053564972359,-0.309466409618565,-0.229782304120073,-0.253687535769621,-0.363847316704379,-0.417948630437564,-0.458349869892063,-0.62372933797051,-0.471077192298068,30,"prev_lose",3368.23378644187,143.064917760994,"norisk",TRUE,"autists","trained"
"34","P304",1933938,"RESPONSE REW VAL4_31",4,"4_31",816,1932938,FALSE,TRUE,TRUE,FALSE,FALSE,FALSE,FALSE,TRUE,FALSE,"norisk",FALSE,-1,0,FALSE,3341.98174573963,182.242724843907,-0.625145882365053,-0.667345900980209,0.745718903193035,0.702941120241214,0.273206137254614,-0.400334249222108,-0.991115003321448,-1.35836087199607,-1.54387106146361,-1.50025449845391,-1.39191207431123,-1.22121411934726,-1.25444534260328,-1.30363306204682,-1.42446502480445,-1.27685940970551,-1.28664517704743,-0.9041513036237,-0.1218694370373,-0.0923621713042551,-0.487986765270448,-0.846705036689973,-1.06478785173847,-0.943863726727608,-0.996706870373975,-0.865577587992246,-0.721447214713397,-0.548658522790354,-0.388591328411805,-0.309885799647504,-0.232158847617398,-0.251590585624926,-0.360631993149176,-0.417948630437564,-0.458629463244689,-0.61799767424167,-0.776107715151837,-0.723404368181782,-0.624008931323136,-0.558304493455958,-0.470092790702366,-0.325263434041952,-0.238729291404116,-0.120041913214258,-0.0579721889312215,0.00899041902277326,0.0721785167163135,0.100557242007881,0.339050371798102,0.438026418627809,0.481083794932256,0.480943998255943,0.510161503605388,0.503031873113418,0.47507253785079,0.415658950417704,0.397485382496996,0.441940725564576,0.461232666895788,0.521485034386755,0.615009010840245,0.709651360704246,0.807229440770816,0.857416447567236,0.897957483698046,0.874331845401127,0.791712009700059,0.789055872850108,0.759558774148037,0.391893515444472,-0.441853862087112,-1.44685216810229,-2.19001129938296,-2.64714643092694,-2.85474449525195,-2.88438139063034,-2.79379314437942,-2.61555238208017,-2.32267834520413,-2.03497678535168,-1.83660530166334,-1.62117862346478,-1.38757837734552,-1.15509650463676,-0.925550362130584,-0.690552149248192,-0.585425048660709,-0.494976599086105,-0.447585525815952,-0.306670476092302,-0.147442061771634,-0.0616069025153631,0.0528865753851014,0.0949653749553572,0.115934876402329,-0.0258189533791994,-0.366643250230639,-0.862502061113356,-0.982866999418974,-1.00062117731074,-1.13650354668712,-1.15271996113944,-0.986641509679429,31,"prev_rew",3368.23378644187,143.064917760994,"norisk",TRUE,"autists","trained"
"35","P304",1937523,"RESPONSE REW VAL4_32",4,"4_32",1103,1936237,FALSE,TRUE,TRUE,FALSE,FALSE,FALSE,FALSE,TRUE,FALSE,"norisk",FALSE,-1,0,FALSE,3341.98174573963,182.242724843907,-0.879009215497183,-0.54180848565101,-2.81853715608685,-2.90591007878256,-2.81630040926584,-2.68517112688411,-2.40096448393949,-2.13227527206563,-1.88148003475985,-1.68953919818191,-1.47089719642815,-1.21688663556717,-0.997126260402914,-0.7576545538785,-0.60779251687081,-0.521258374232977,-0.447026339110696,-0.369439183756903,-0.190359641399768,-0.0881682710148615,0.031777277261817,0.0857387943186887,0.114536909639195,0.0166792362199955,-0.189660658018203,-0.762687234225774,-0.989996629910944,-0.964973024850892,-1.11329729841914,-1.14573012732378,-1.15285975781575,-1.11763099538484,-1.04661428381777,-0.929884059096294,-0.840553982932194,-0.671539801269606,-0.437100775092466,-0.515946100533077,-0.413475136795544,-0.293529588518869,-0.164217662929212,0.2347620512685,0.168079036667131,0.195898575253447,0.19575877857713,0.158712659354149,0.162906559643543,0.132051436085826,0.149479421732912,0.182764344664579,0.216049267596317,0.285308535232588,0.142076854872885,0.056101898940304,0.0939867982211629,0.0808459106477299,0.0103883857859034,-0.169669733305423,-0.328199164244525,-0.415711883616552,-0.467576450528729,-0.398936282458978,-0.25718245267745,-0.194273948336536,-0.168970749923858,-0.140032837927038,-0.174422820300068,-0.204199512354769,-0.28877650152422,-0.502665416283327,-1.09903803743519,-1.92216086756698,-2.56648374869425,-2.9499460318212,-3.09757132200788,-3.07017117345051,-2.99160544136252,-2.79868602805038,-2.57431236256779,-2.33749679289332,-2.14849168651796,-1.94844264271385,-1.74937217564393,-1.64242771826438,-1.47047780639921,-1.35053225812254,-1.21870399235924,-1.13957907356601,-1.08715531994858,-0.954628070803719,-0.862362264437043,-0.749686143328651,-0.650430503146321,-0.682583738698344,-0.64106412583334,-0.780161818764917,-0.931142229183111,-1.07331544899358,-1.1193085555006,-1.29433399424466,-1.26371852213208,-1.17900173628631,-1.56865584720163,32,"prev_rew",3368.23378644187,143.064917760994,"norisk",TRUE,"autists","trained"
"36","P304",1940855,"RESPONSE REW VAL4_33",4,"4_33",853,1939819,FALSE,TRUE,TRUE,FALSE,FALSE,FALSE,FALSE,TRUE,FALSE,"norisk",FALSE,-1,0,FALSE,3341.98174573963,182.242724843907,-1.43924091251615,-1.18248368236852,-0.376708610925186,-0.855372430621386,-1.60663976912821,-2.37789803234782,-2.8509699849915,-3.0669558498953,-3.07744060061879,-3.03620058110641,-2.87529460666998,-2.66504040549502,-2.42067581529964,-2.19825930328544,-2.02826654488865,-1.8128398666901,-1.67709729399004,-1.54540882490306,-1.38380386708506,-1.26945018586092,-1.15565569134202,-1.10560848122191,-1.01404165823681,-0.888644039583916,-0.786872059227948,-0.67405614144324,-0.680207195201019,-0.642322295920157,-0.7331901355237,-0.866556164726437,-1.03682851647585,-1.0798858927803,-1.25644909496379,-1.28105330999491,-1.20961720839889,-1.17243129249959,-1.15285975781575,-1.06464805506216,-0.921636055193816,-0.798335386685625,-0.738362612547288,-0.659377490430361,-0.516924677267268,-0.41683025702706,-0.269764153545634,-0.181832044144668,-0.14198999139542,-0.101029565235668,-0.0507027617629384,0.0369497542854018,0.252656025836582,0.396367009086492,0.395248635675988,0.45326425634594,0.448650966027607,0.548186199562563,0.69035941937303,0.746977073279853,0.964640498299415,1.01133258818801,1.14455882071443,1.20495098488171,1.28645244717227,1.33915579414233,1.47252182334506,1.55556104907507,1.54773243520153,1.63762169807088,1.62685735399477,1.4154847794093,0.939197503210424,0.233364084505366,-0.374192270751552,-0.724942131621225,-0.874664371952602,-0.874943965305228,-0.736405459078902,-0.569628024237325,-0.384956614827663,-0.207135242557346,-0.0530793052602628,0.106987889118286,0.202049629011222,0.28061536109921,0.321575787258959,0.338351388416536,0.375677100992147,0.371063810673814,0.428660041314827,0.459834700132658,0.526377918057714,0.58537211546186,0.551261726441453,0.622138641332215,0.638355055784541,0.497440006060894,0.209878242884761,-0.036024110750059,-0.280109107592806,-0.335328794736495,-0.320789940399929,-0.29716430210301,0.395982568226629,33,"prev_rew",3368.23378644187,143.064917760994,"norisk",TRUE,"autists","trained"
"37","P304",1944108,"RESPONSE LOSE INV 4_34",4,"4_34",774,1943150,FALSE,FALSE,TRUE,FALSE,FALSE,FALSE,FALSE,TRUE,FALSE,"norisk",FALSE,-1,0,FALSE,3341.98174573963,182.242724843907,0.308728426261692,0.369263928466281,1.63678291801301,1.62056650356068,1.3963326347544,0.901312603929561,0.190166911524607,-0.398377095753726,-0.740599359368296,-0.879697052299873,-0.871588845073712,-0.726200301708043,-0.557745306750706,-0.372514710635792,-0.198328051949616,-0.0437129279472812,0.113698129581317,0.211975193029456,0.279077597659764,0.323393144051031,0.342685085382246,0.378193441165784,0.369945437263307,0.430896788135838,0.463329617040487,0.530152428318168,0.584113945375043,0.559789323696556,0.619762097834894,0.632343798703075,0.482901151724328,0.197016948663951,-0.0572732055496565,-0.283184634471696,-0.332812454562861,-0.325403230718265,-0.289894874934724,-0.175401397034263,-0.113751062780166,-0.0157535926846527,0.0897928979317693,0.15116363883324,0.267893863554713,0.434112111691041,0.53504531198913,0.610954907227165,0.617665147690196,0.70769420723586,0.770183321547835,0.792830383110563,0.831693859125616,0.825123415338901,0.872794081961681,0.937519943094667,1.02181733891149,1.06613288530276,1.10737290481513,1.21641431233939,1.30392703171141,1.38808463085193,1.45868195239006,1.54982938534623,1.65845140284154,1.71632722683519,1.73478038810852,1.76162134996064,1.78007451123398,1.74330798536362,1.72485482409029,1.52354761019936,0.934444416215778,0.291379705175322,-0.185466757728809,-0.472469334199691,-0.619395641004803,-0.672098987974858,-0.630579375109854,-0.508676673364793,-0.413335340119231,-0.285561177969017,-0.224889420449115,-0.212028126228304,-0.079640673759758,0.0176578129541898,0.081125504000356,0.228750794187034,0.333039114716639,0.355266786250427,0.450887712848616,0.530432021670795,0.629128475147872,0.685746129054698,0.759838367500663,0.80247635377617,0.884816596124613,0.9336056361579,0.853362343954156,0.725168791775003,0.284669464712291,0.0871367610818188,0.0151414727805523,-0.00261270511121656,0.453840917635732,34,"prev_rew",3368.23378644187,143.064917760994,"norisk",TRUE,"autists","trained"
"38","P304",1947285,"RESPONSE REW VAL4_35",4,"4_35",702,1946399,FALSE,TRUE,FALSE,FALSE,FALSE,FALSE,FALSE,TRUE,FALSE,"norisk",FALSE,-1,0,FALSE,3341.98174573963,182.242724843907,0.137326554522974,0.338132576227497,1.76204073998958,1.7750418308867,1.74358757871625,1.64586970197336,1.24647059774671,0.569575091038474,0.0136037093411059,-0.362589146617559,-0.562638190421668,-0.658678507048796,-0.668324477714403,-0.554390186519191,-0.464500923649839,-0.317015430139474,-0.265430456579924,-0.223072063657042,-0.144366534892745,-0.0258189533791994,0.0425416213379288,0.162487169614604,0.286766414856989,0.347018782347953,0.401819079462703,0.497300209384581,0.585511912138173,0.66016333728939,0.726706555214446,0.772839458397786,0.862728721267134,0.908442234421532,0.907743251039966,0.783324209121271,0.52525954464721,0.137603361230865,0.0456171482168183,-0.00401067187434989,0.0106679791385326,-0.00582802866641909,0.045197758187876,0.0966429350711134,0.167380053285563,0.231267134360671,0.225675267308144,0.255451959362845,0.278658207630825,0.353589226134671,0.822327481812638,0.869438961730165,0.969533381970377,0.940595469973557,0.866643028203902,0.858395024301428,0.909979997860978,0.986308983127954,1.08444624989978,1.15224763791165,1.26100945208328,1.35033952824738,1.38025601697839,1.43477672074051,1.51264346944693,1.57890709401936,1.67326985053074,1.74889985241615,1.74917944576877,1.88268527164782,1.81278693349125,1.47629633360552,0.652893910121107,-0.409980219887715,-1.19913245767541,-1.68884021480034,-1.95165796626905,-2.04238600919628,-1.95878759676102,-1.78250398793015,-1.54610780828463,-1.220381552475,-0.914087034672907,-0.647354976267432,-0.431229314687313,-0.199027035331181,-0.0472078448551098,0.114257316286569,0.19170467496405,0.233783474534306,0.239235544910519,0.204845562537486,0.20903946282688,0.305778762835575,0.349395325845274,0.286626618180673,0.210996616295265,0.0307987005276227,-0.023861799910814,-0.179175907294717,-0.298282675513514,-0.436681385063524,-0.527828818019696,-0.586683218747526,-0.0765360225733037,35,"prev_lose",3368.23378644187,143.064917760994,"norisk",TRUE,"autists","trained"
"39","P304",1950715,"RESPONSE REW VAL4_36",4,"4_36",950,1949581,FALSE,TRUE,TRUE,FALSE,FALSE,FALSE,FALSE,TRUE,FALSE,"norisk",FALSE,-1,0,FALSE,3341.98174573963,182.242724843907,-0.0347255343149153,0.211159472217139,0.00214038188342915,-0.929464669067351,-1.50668514556432,-1.8862331217545,-2.02351345789401,-2.01554504734416,-1.85352069949723,-1.63851341132761,-1.36660887589855,-1.04116221344155,-0.740459562691983,-0.509795046775298,-0.291852028403109,-0.105642855554004,0.0732968901268176,0.149066688688542,0.205404749242738,0.263839759941632,0.196178168606073,0.219244620197739,0.271248983786229,0.335275861537647,0.324092127432596,0.236439611384256,0.111321586083993,0.00186078853080312,-0.12199906668264,-0.252848755711743,-0.368879997051651,-0.503923586370148,-0.572843347792525,-0.582069928429193,-0.568789244179444,-0.644978432770107,-0.62820283161253,-0.6023404464946,-0.599404716292023,-0.612685400541772,-0.717393111100316,-0.727877861823802,-0.67531431153006,-0.594372035944751,-0.532162514985402,-0.475405064402267,-0.456532513099991,-0.374332067427865,-0.368460607022712,-0.495116395762418,-0.443112032173929,-0.383698444740843,-0.3332318445918,-0.247117091982903,-0.151635962061028,-0.0726508399441009,0.000602618443985977,0.163605543025108,0.285228651417543,0.501494109673975,0.706156443796417,0.917109628352948,1.09800652750216,1.24856754789141,1.34111294761071,1.41953888302238,1.43240017724319,1.47364019675557,1.47965145383703,1.15434458805635,0.246085582049864,-0.822520211687799,-1.7138638198604,-2.3734245387058,-2.64616785419274,-2.64211375057966,-2.510565078169,-2.32477529534883,-2.00422151656279,-1.61978065670165,-1.29824830118142,-0.951133153895891,-0.605276176697176,-0.317574616844726,-0.128849103821984,-9.63649375822789e-05,0.0621131560217668,0.181779110945816,0.173531107043342,0.214910923232033,0.217986450110922,0.198694508779707,0.260065249681178,0.245526395344612,0.243429445199913,0.165143306464555,-0.152055352089967,-0.441853862087112,-0.671679597945919,-0.84390910316371,-0.985243542916295,-1.0043956875712,-0.461052605634115,36,"prev_rew",3368.23378644187,143.064917760994,"norisk",TRUE,"autists","trained"
"40","P304",1953929,"RESPONSE LOSE INV 4_37",4,"4_37",732,1953013,FALSE,FALSE,TRUE,FALSE,FALSE,FALSE,FALSE,TRUE,FALSE,"norisk",FALSE,-1,0,FALSE,3341.98174573963,182.242724843907,-0.143799452694119,0.117828485926939,1.45155232189809,1.46539219285309,1.45211150860334,0.948144490494466,-0.0578323922549085,-1.08533796315651,-1.92649456453269,-2.48106797946692,-2.69607526763654,-2.60604620809087,-2.46946485533293,-2.24005850950306,-1.89923421265162,-1.52150359325351,-1.20584269813844,-0.856490804031894,-0.515526710504137,-0.248095668717097,-0.0940397314200113,0.0233894766830266,0.0992990719210639,0.184854637824706,0.184854637824706,0.211416006324204,0.22050279028456,0.219524213550365,0.249999888986631,0.245107005315673,0.232385507771175,0.0956643583369223,-0.239288478109368,-0.49287964894141,-0.759891300699511,-0.870610268339521,-1.00719162109746,-1.03305400621539,-1.14600972067641,-1.10700644798504,-1.08380019971706,-1.12518001590575,-1.15006382428949,-1.12867493281358,-1.13957907356601,-1.11874936879535,-1.15992231822604,-1.04762437540962,-0.863787705691487,-0.679951035973353,-0.3404859183679,-0.530764548222269,-0.453736579573727,-0.388731125088118,-0.400474045898421,-0.52321552770136,-0.677271464998443,-0.864039824552803,-0.957563801006296,-0.934916739443565,-0.891300176433866,-0.743674886247185,-0.598426139557832,-0.46268356685777,-0.364965690114883,-0.268925373487753,-0.191757608162898,-0.15792681249512,-0.133322597464007,-0.144506331569058,-0.367342233612208,-0.805325220501282,-1.23925410377728,-1.51703009961149,-1.66465538979817,-1.63026540742514,-1.53338631074013,-1.41903262951598,-1.18599157010197,-0.934637146090939,-0.730254405321123,-0.539571738829998,-0.356577889536096,-0.153173725500471,-0.108718382432894,0.00255977191236819,0.0904918813133344,0.164024933054047,0.253914195923399,0.347997359082144,0.445715235825031,0.544411689302109,0.595717069509033,0.689800232667778,0.764032267790056,0.7219534682198,0.597534426301102,0.457178563282708,0.143894211664957,-0.04860581161824,-0.15932477925825,-0.168830953247544,-0.687715441691338,37,"prev_rew",3368.23378644187,143.064917760994,"norisk",TRUE,"autists","trained"
"41","P304",1957162,"RESPONSE REW VAL4_38",4,"4_38",750,1956228,FALSE,TRUE,FALSE,FALSE,FALSE,FALSE,FALSE,TRUE,FALSE,"norisk",FALSE,-1,0,FALSE,3341.98174573963,182.242724843907,-0.0636834172655153,0.126000237096875,-0.189241267989264,-0.113191876074913,-0.144646128245371,-0.245299735190834,-0.663711187396067,-1.08505836980388,-1.4544011886232,-1.63110418748301,-1.6575257593062,-1.56987324325786,-1.46195020914411,-1.27574103629501,-1.01278348814998,-0.795679249835675,-0.607652720194497,-0.421024157316453,-0.208393412644163,-0.126472560324663,-0.0377016708658152,0.0642101061664652,0.141937058196572,0.22050279028456,0.317242090293252,0.410766066746745,0.52525954464721,0.569575091038474,0.653872486855302,0.741385206227329,0.760397554205915,0.636957089021411,0.5123982504264,0.269711220346785,-0.00275250178752957,-0.14198999139542,-0.149259418563703,-0.269764153545634,-0.252988552388056,-0.325682824070891,-0.389010718440744,-0.408861846477211,-0.377128000954125,-0.373912677398926,-0.354760532744024,-0.38789234503024,-0.372095320606853,-0.398237299077409,-0.483093881599489,-0.531044141574895,-0.40802306641933,-0.456812106452617,-0.46841523058661,-0.430390534629435,-0.458489666568376,-0.398656689106352,-0.336866558175942,-0.27269988374821,-0.168830953247544,-0.0565742221680914,0.0664468529874735,0.208060886092688,0.317801276998504,0.413282406920383,0.4634694137168,0.547347419504685,0.508064553460693,0.544691282654735,0.635698918934591,0.457458156635334,-0.357836059622913,-1.2714073393293,-2.02658898477289,-2.47617509579596,-2.70893656185735,-2.81042894886069,-2.84160360767852,-2.73899284726467,-2.60366966459355,-2.31582830806479,-2.0011459896839,-1.70393825584216,-1.41050503226088,-1.18501299336778,-0.947778033664375,-0.759332113994259,-0.604157803286669,-0.46268356685777,-0.343576798638973,-0.232997627675276,-0.150936978679463,-0.0772641302624367,-0.0030320951401556,0.081125504000356,0.166820866580311,0.247064158784055,0.184854637824706,0.0681244131032328,-0.199166832007497,-0.242224208311944,-0.243062988369822,-0.175541193710576,-1.09464026699284,38,"prev_lose",3368.23378644187,143.064917760994,"norisk",TRUE,"autists","trained"
"42","P304",1960592,"RESPONSE REW VAL4_39",4,"4_39",948,1959460,FALSE,TRUE,TRUE,FALSE,FALSE,FALSE,FALSE,TRUE,FALSE,"norisk",FALSE,-1,0,FALSE,3341.98174573963,182.242724843907,-0.904112239931444,-0.536956552521605,-0.912409474557151,-1.75985692636742,-2.34476622006161,-2.61862790895906,-2.78750229394533,-2.83908726750488,-2.79085741417685,-2.67888027645002,-2.41941764521283,-2.14947026325215,-1.80585003287444,-1.52401993342715,-1.28370944684486,-1.03039786936544,-0.824896755185124,-0.672797971356423,-0.517903254001462,-0.389569905145996,-0.276474394008665,-0.179455500647343,-0.101728548617237,-0.0235822065581879,0.0309384972039358,0.13830234461243,0.223718113839759,0.23042835430279,0.103353175534145,-0.091523391246377,-0.228803727385882,-0.24557932854346,-0.220415926807095,-0.0483262182656139,0.075813230300455,0.0977613084816175,0.133549257617784,0.175208667159101,0.220083400255617,0.167100459932937,0.156615709209451,0.192263861669302,0.299208319048857,0.353309632782045,0.330103384514062,0.337652405034971,0.361557636684519,0.411744643480936,0.415658950417704,0.355965769631992,0.351492275989973,0.328146231045677,0.315844123530122,0.224417097221327,0.244967208639359,0.22455689389764,0.237138594765821,0.327726841016738,0.355686176279366,0.449909136114425,0.573629194651558,0.683089992204747,0.810444764326019,0.995395767088307,1.05005626752675,1.17629266623751,1.23654503372848,1.25094409138873,1.17601307288489,0.662959270815654,-0.324564450660384,-1.34088628745693,-2.09439037278477,-2.54928875750774,-2.80106257154771,-2.87221907979109,-2.81002024392802,-2.60574791581973,-2.33639444712723,-2.05831481647374,-1.83674509833965,-1.81703376697949,-1.57280897346044,-1.39554678789537,-1.16739861215232,-0.934916739443565,-0.892138956491744,-0.868233724842197,-0.849920360245176,-0.805185423824969,-0.738782002576227,-0.682164348669404,-0.62638547482046,-0.568649447503131,-0.600942479731466,-0.662313220632937,-0.755697400410117,-0.908914557649322,-1.13706273339237,-1.1352453766003,-1.13258923975035,-1.11553404524015,-0.923278666140493,39,"prev_rew",3368.23378644187,143.064917760994,"norisk",TRUE,"autists","trained"
"43","P304",2108219,"RESPONSE REW VAL3_10",3,"3_10",2768,2105281,FALSE,TRUE,TRUE,FALSE,FALSE,FALSE,FALSE,TRUE,FALSE,"norisk",FALSE,-1,0,FALSE,3341.98174573963,182.242724843907,-0.294696263771,-0.258370429496435,-0.663291797367128,-0.550056489553484,-0.516365490562016,-0.499310296051812,-0.477502014546962,-0.491481682178277,-0.477082624518023,-0.422701717432209,-0.683981705461474,-0.689853165866627,-0.641343719185966,-0.620094624386368,-0.558584086808584,-0.436681385063524,-0.381042307890896,-0.417529240408625,-0.441574268734486,-0.432068094745191,-0.458769259921002,-0.502525619607014,-0.488126561946761,-0.403689369453623,-0.148001248476886,-0.197349475215425,-0.111234722606528,-0.066359989510012,-0.0881682710148615,-0.139613447898096,-0.177498347178958,-0.20252195223901,-0.270602933603512,-0.390268888527561,-0.416970053703373,-0.489244935357268,-0.66105505054612,-0.639526362393897,-0.637848802278137,-0.584166878573892,-0.608910890281318,-0.705370596937384,-0.771214831480875,-0.971403671961294,-1.01739677846832,-1.06017456142014,-1.1384607001555,-1.1564944713999,-1.16516186533131,-0.960219937856243,-0.898290010249523,-0.885848106057652,-0.856490804031894,-0.781839378880673,-0.702714460087437,-0.612545603865459,-0.503783789693835,-0.443671218879181,-0.272000900366642,-0.231040474206894,-0.1619809161082,-0.0786620970255669,0.0141628960463612,0.0675652263979808,0.215050719908346,0.271947967167794,0.260484639710117,0.252795822512895,0.189607724819355,-0.425078260929534,-1.65668697924832,-2.79742785796356,-3.58797806251438,-4.03826315691902,-4.25271125838338,-4.23998976083888,-4.16380057224822,-4.01072321168533,-3.71868795486718,-3.34612981249265,-2.99328300147828,-2.69481709754972,-2.50693036458485,-2.2393595261215,-2.0277073581834,-1.78907443171687,-1.6000693253415,-1.42644185336058,-1.27336449279768,-1.08897267674065,-0.957004614301041,-0.720748231331832,-0.627224254878339,-0.514128743741007,-0.414593510206048,-0.367062640259582,-0.345953342136297,-0.313380716555333,-0.33630737147069,-0.549916692877171,-0.856351007355581,-1.05388371098605,-2.05070973629842,10,"prev_rew",3368.23378644187,143.064917760994,"norisk",TRUE,"autists","trained"
"44","P304",2114787,"RESPONSE REW VAL3_11",3,"3_11",3955,2110662,FALSE,TRUE,TRUE,FALSE,FALSE,FALSE,FALSE,TRUE,FALSE,"norisk",FALSE,-1,0,FALSE,3341.98174573963,182.242724843907,-1.38274169100956,-1.28209147219766,-0.749686143328651,-0.726479895060669,-0.700617509942738,-0.698939949826982,-0.660216270488239,-0.657560133638291,-0.616040520773288,-0.47694282784171,-0.606114956755054,-0.704112426850567,-0.767999507925672,-0.78337714232012,-0.75010553335759,-0.747728989860266,-0.710263480608346,-0.714037990868801,-0.683981705461474,-0.668883664419655,-0.615760927420662,-0.6023404464946,-0.582768911810758,-0.623449744617884,-0.64679578956218,-0.708166530463648,-0.65084989317526,-0.624288524675762,-0.715995144337183,-0.682024551993091,-0.707607343758396,-0.663152000690815,-0.578155621492426,-0.499310296051812,-0.460307023360446,-0.422561920755896,-0.419765987229636,-0.467856043881355,-0.509655250098984,-0.523774714406612,-0.528248208048635,-0.490922495473025,-0.461425396770953,-0.420604767287514,-0.303455152537099,-0.235094577819974,-0.122278660035269,-0.0321098038132914,0.0725979067452525,0.13564620776248,0.193242438403496,0.248462125547188,0.323393144051031,0.402238469491645,0.438585605333061,0.508623740165945,0.523302391178824,0.608997753758782,0.729362692064397,0.765989421258442,0.923819868815979,0.997213123880379,1.15364560467479,1.29721679124838,1.3739651665443,1.42764709024854,1.47741470701602,1.41911949299344,1.3803958136547,1.11268517851503,0.540776975717967,-0.150517588650524,-0.812734444345878,-1.20947741172258,-1.36283436563809,-1.39442841448487,-1.35528534511718,-1.21982236576975,-1.0724766689357,-0.964693431498266,-0.708306327139961,-0.492040868883529,-0.321768517134123,-0.222233283599164,-0.240127258167246,-0.126891950353602,-0.148840028534764,-0.125913373619411,-0.0199474929740464,-0.0266577334370775,-0.023722003234501,0.0644896995190913,0.0465957249510094,0.0527467787087884,0.0675652263979808,0.101535818742075,0.134388037675663,0.103213378857831,-0.0247005799686952,-0.247676278688155,-0.412496560061353,-0.690691945924505,-0.0196154758678049,11,"prev_rew",3368.23378644187,143.064917760994,"norisk",TRUE,"autists","trained"
"45","P304",2119085,"RESPONSE REW VAL3_12",3,"3_12",1689,2117226,FALSE,TRUE,TRUE,FALSE,FALSE,FALSE,FALSE,TRUE,FALSE,"norisk",FALSE,-1,0,FALSE,3341.98174573963,182.242724843907,-0.0880433364436907,-0.073279924987511,-0.0251199699976343,-0.0251199699976343,-0.0249801733213213,0.0633713261085871,0.0465957249510094,0.0513488119456551,0.0671458363690417,0.0995786652736899,0.131592104149399,0.110343009349802,-0.0172913561240959,-0.241245631577753,-0.407324083037765,-0.679508211819454,-0.866975554755379,-1.06269090159378,-1.17718437949424,-1.328863773294,-1.40742950538199,-1.39121309092966,-1.35696290523294,-1.33823015060698,-1.24610414091662,-1.27825737646864,-1.2256938261749,-1.13342801980823,-1.03682851647585,-0.904860454036238,-0.589758745626415,-0.494836802409792,-0.443671218879181,-0.405926116274635,-0.321209330428868,-0.243482378398761,-0.201822968857445,-0.152474742118906,-0.11612760627749,-0.0674783629205161,-0.0947387148015796,-0.0845335574307199,-0.010581115661068,0.0054955021149447,0.0373691443143408,-0.0480466249129879,0.0108077758148456,0.121946133483791,0.209319056179506,0.239934528292085,0.305499169482949,0.367289300413359,0.427681464580636,0.382387341455178,0.371483200702753,0.414680373683513,0.452984662993314,0.44879076270392,0.486535865308469,0.55377806661509,0.634720342200399,0.719856518075102,0.784722175884402,0.826381585425718,0.892505413321835,0.937240349742041,0.949123067228657,0.990782476769974,0.903549350750573,0.505688009963368,-0.409700626535089,-1.49074832446462,-2.29192307641524,-2.80595545521866,-2.99496056159403,-2.94728989497125,-2.84705567805473,-2.58218399080324,-2.19689001276358,-1.81155302036201,-1.43632440301689,-1.32816478991244,-1.02452640896029,-0.809519120790676,-0.712640024105667,-0.646096806180611,-0.586823015423839,-0.567391277416314,-0.584166878573892,-0.522656340996108,-0.48980412206252,-0.34930846236781,-0.280109107592806,-0.181133060763099,-0.148700231858451,-0.22377104703861,-0.196370898481234,-0.193155574926031,-0.34036147508377,-0.451779426105345,-0.46533970370772,-0.576058671347727,-0.897730823544268,12,"prev_rew",3368.23378644187,143.064917760994,"norisk",TRUE,"autists","trained"
