"","fname","time","text","block","info","RT","fix_cross_time","risk","rew","prev_rew","next_risk","prev_risk","learning","critical","trained","last_trial","trial_type","blink","blink_time","blink_duration","meg","Zmean","Zsd","BL_fix_m300","inter_trial","V_m1999_m1950","V_m1949_m1900","V_m1899_m1850","V_m1849_m1800","V_m1799_m1750","V_m1749_m1700","V_m1699_m1650","V_m1649_m1600","V_m1599_m1550","V_m1549_m1500","V_m1499_m1450","V_m1449_m1400","V_m1399_m1350","V_m1349_m1300","V_m1299_m1250","V_m1249_m1200","V_m1199_m1150","V_m1149_m1100","V_m1099_m1050","V_m1049_m1000","V_m999_m950","V_m949_m900","V_m899_m850","V_m849_m800","V_m799_m750","V_m749_m700","V_m699_m650","V_m649_m600","V_m599_m550","V_m549_m500","V_m499_m450","V_m449_m400","V_m399_m350","V_m349_m300","V_m299_m250","V_m249_m200","V_m199_m150","V_m149_m100","V_m99_m50","V_m49_0","V_1_50","V_51_100","V_101_150","V_151_200","V_201_250","V_251_300","V_301_350","V_351_400","V_401_450","V_451_500","V_501_550","V_551_600","V_601_650","V_651_700","V_701_750","V_751_800","V_801_850","V_851_900","V_901_950","V_951_1000","V_1001_1050","V_1051_1100","V_1101_1150","V_1151_1200","V_1201_1250","V_1251_1300","V_1301_1350","V_1351_1400","V_1401_1450","V_1451_1500","V_1501_1550","V_1551_1600","V_1601_1650","V_1651_1700","V_1701_1750","V_1751_1800","V_1801_1850","V_1851_1900","V_1901_1950","V_1951_2000","V_2001_2050","V_2051_2100","V_2101_2150","V_2151_2200","V_2201_2250","V_2251_2300","V_2301_2350","V_2351_2400","V_2401_2450","V_2451_2500","V_2501_2550","V_2551_2600","V_2601_2650","V_2651_2700","V_2701_2750","V_2751_2800","V_2801_2850","V_2851_2900","V_2901_2950","V_2951_3000","resp_1001_2200","index","feedback_prev","Zmean_2","Zsd_2","trial_type4","resp_flag","group","train"
"1","P301",679360,"RESPONSE REW INV1_29",1,"1_29",3267,675909,TRUE,TRUE,TRUE,FALSE,FALSE,TRUE,FALSE,FALSE,FALSE,"learning",FALSE,-1,0,FALSE,5259.06118383728,371.996247599825,-1.56101775342335,-0.132085227857162,-1.11634467851616,-0.745663680458775,-0.517319039860707,-0.388582282726743,-0.270504671793739,-0.168967115310496,-0.0870019565927981,0.0329134381679599,0.0892415124885307,0.0911711855076655,0.202816553043543,0.261625635531577,0.268149768120094,0.316391593598559,0.317769931469373,0.356179613469369,0.290754509201432,0.360498405464586,0.385400376330609,0.438512328952616,0.482527251627254,0.476003119038737,0.53940666109615,0.493553954593763,0.509542673895195,0.515056025378447,0.518088368694236,0.466170975560272,0.441544672268405,0.457257723995677,0.429690966579411,0.352044599856931,0.300127206722963,0.23819389172775,0.264382311273206,0.215772929029191,0.179568587622494,0.175157906435892,0.089700958445466,0.0367727842062378,0.0275838650674825,0.0481670439382923,0.0591937469047969,0.114143483354554,0.125170186321062,0.141985908344984,0.194730304201437,0.13950490017752,0.144834473277998,0.146672257105751,0.120943283517235,0.10118710736891,0.0810633744550355,0.0488102682780067,-7.47815401728991e-05,0.0643395416225036,0.0932846369095793,0.150991049100964,0.19877342862249,0.200886880024404,0.302700104081812,0.317953709852148,0.331369531794731,0.37336289225884,0.401480984823431,0.408372674177497,0.511104790148784,0.508531892789931,0.506602219770792,0.565778859024376,0.472970775722949,0.48941894098132,0.550157696488494,0.588567378488489,0.658954499091358,0.653073590842551,0.621463709005233,0.631479630866477,0.709769221928672,0.832349403239669,0.859456714698995,0.90779042936885,0.888677477560239,0.928924943387984,0.936827413847315,0.947762227622434,1.03009494310568,0.994166269273146,0.959983490076978,0.963842836115256,0.911190329450188,0.930854616407123,0.895109720957366,0.853116360493253,0.651715280103198,0.175722789349619,-0.140882597642769,-0.457487984635106,-0.774093371627494,-1.09069875861988,0.584179669599734,29,"prev_rew",5419.0962764606,217.653455188737,"risk",TRUE,"autists","not_trained"
"2","P301",694560,"RESPONSE LOSE VAL1_32",1,"1_32",1708,692668,TRUE,FALSE,TRUE,FALSE,FALSE,TRUE,FALSE,FALSE,FALSE,"learning",FALSE,-1,0,FALSE,5259.06118383728,371.996247599825,0.786614534703634,0.832230142799776,0.858262155210956,0.807079875608092,0.821230811081774,0.827754943670291,0.857067595722921,0.842916660249238,0.853208249684643,0.84015998450761,0.867634852732486,0.930487059641573,0.978636995928653,1.03083005663678,1.10489274489515,1.14679421616787,1.16048570568462,1.09248770405783,0.690852882188788,0.0422617516861855,-0.609047810173898,-1.26035737203403,-1.91166693389411,-2.5629764957542,-3.21428605761428,-3.42618304630145,-2.36750790844908,-1.73834661020075,-0.835619203644944,-0.271056006942064,0.164406871043547,0.393119068407165,0.552822483038732,-0.157480966387052,0.235253437603351,0.391189395388026,0.510185898234909,0.527828622981316,0.51882348222534,0.53793643403395,0.608507333019589,0.643976560895186,0.633684971459781,0.623025825258822,0.6254149442349,0.648479131273174,0.70278564338322,0.716569022091353,0.746800566057857,0.814706678493258,0.845857114373637,0.96595628751717,0.911465997024348,0.748730239076996,0.823987486823399,0.821414589464549,0.822149702995649,0.812133781134404,0.797523399703786,0.770416088244456,0.76242172859374,0.785669694014792,0.797063953746847,0.81158244598608,0.749465352608096,0.711423227373646,0.741195325383216,0.748454571502832,0.692218386373651,0.629825625421503,0.613561238545906,0.539130993521985,0.541520112498063,0.536374317780361,0.50026186556505,0.541703890880838,0.603637205876047,0.675218885966954,0.739449430746852,0.781718458785125,0.839976206124835,0.746065452526754,0.718590584301877,0.867910520306651,0.89841773184732,0.953735025062626,1.01796556984252,1.01677101035448,1.04442965696214,1.12069768581381,1.09092558780424,1.11362221807696,1.100114506943,1.09019047427314,1.1140816640339,1.18024188183294,1.17151240865112,1.09147692295257,1.06152104656023,1.0253520471502,0.59784111841929,0.144049880951531,0.707437533697214,32,"prev_rew",5419.0962764606,217.653455188737,"risk",TRUE,"autists","not_trained"
"3","P301",974600,"RESPONSE REW INV4_5",4,"4_5",2418,972004,TRUE,TRUE,TRUE,FALSE,FALSE,FALSE,FALSE,FALSE,FALSE,"unused",FALSE,-1,0,FALSE,5259.06118383728,371.996247599825,0.438320918577195,0.487490941717923,0.556406161502846,0.523509830986103,0.434168312473485,0.377339351972422,0.26493364642153,0.186827833742111,0.187471058081821,0.192433074416748,0.155493619478952,0.115154264459818,0.226891521187081,0.452614256857545,0.0903237629648915,-0.280150119772267,-0.650624002509384,-1.0210978852465,-1.39157176798361,-1.54775480559403,-0.691724725114282,-0.266920993329626,-0.670406432712368,-0.0137662710569162,0.34368268344066,0.625231165852125,0.799361183531536,0.876731882679856,0.940502981502818,0.949232454684634,0.938389530100904,0.971929084957362,0.870483417665504,0.868508429428688,0.872253228666738,0.873169603068545,0.930055991229044,1.01697235578855,0.992656147259532,0.912988545334337,0.84104682965722,0.769105113980149,0.697163398303032,0.625221682625965,0.554271454594028,0.494656624890412,0.461944072756444,0.46047384569424,0.467916870196632,0.510829122574619,0.574067767589948,0.771499877200418,0.80945839198515,0.757700037836298,0.717719411667629,0.640021381923394,0.563118410590476,0.486215439257557,0.395355564563213,0.309959350201432,0.308489123139228,0.334218096727745,0.405799776818648,0.462679186287544,0.485467705751657,0.422064163694245,0.427761293560272,0.491440503191849,0.538487769182275,0.513126352359308,0.705358540742069,0.563849186005237,0.396610857679893,0.323650839718176,0.276419795344975,0.267230876206219,0.338353110340183,0.487721409077269,0.480365437493027,0.522774717455003,0.559438504818635,0.656014044966954,0.708758440823408,0.769497196330581,0.82067947593345,0.873883317746842,0.853116360493253,0.839884316933445,0.823619930057849,0.819760584019575,0.816728240703782,0.783372464230104,0.765454071909528,0.726401165569818,0.67384054809614,0.671635207502837,0.609426224933464,0.551903591124858,0.551627923550693,0.538487769182275,0.531044744679883,0.449355253536346,0.520726354230323,5,"prev_rew",5419.0962764606,217.653455188737,"risk",TRUE,"autists","not_trained"
"4","P301",987526,"RESPONSE LOSE VAL4_7",4,"4_7",1583,985766,TRUE,FALSE,FALSE,FALSE,FALSE,FALSE,FALSE,FALSE,FALSE,"unused",FALSE,-1,0,FALSE,5259.06118383728,371.996247599825,1.2624998037883,1.3875143918996,1.42488153903709,1.37284162698125,1.22857559650279,1.03836497033056,0.913855116000427,0.802944861995649,0.66410029380906,0.640576660813847,0.60584254646935,0.648938577230113,0.648662909655949,0.646181901488485,0.632398522780352,0.592426724526767,0.537293209694236,0.504213100794717,0.533433863655958,0.565503191450216,0.707288213761208,0.616869249435855,0.54877935861768,0.528379958129645,0.542714671986103,0.549606361340169,0.410945571536351,0.485743373325817,0.876364325914306,0.631325980087439,0.419679563858739,0.208033147630039,-0.00361326859870226,-0.215259684827402,-0.426906101056102,-0.105543990310664,0.56724908608658,0.57662178360811,0.42215605288563,0.604923654555476,0.616869249435855,0.701315416321016,0.747627568780343,0.79053982115833,0.821230811081774,0.830971065368854,0.749924798565031,0.434101647766014,0.778961783043501,1.04746200027793,1.13788096460328,1.11077365314395,0.870575306856889,0.814431010919093,0.859363608432237,0.965596033203899,1.08273953878074,1.18961640496753,1.21859452916244,1.28082569188143,1.28668063120061,1.26278061222926,1.24888278079163,1.23498494935401,1.22108711791643,1.2071892864788,1.21718089502337,1.13950756449995,1.03875187218906,0.937996179878113,0.798559974266292,0.610253227655953,0.435112428871278,0.302424436507651,0.238653337684689,0.200794990833019,0.194638415010052,0.202632774660768,0.391924508919126,0.737335979344938,0.798993626765986,0.877099439445406,0.947302781665495,1.05031056521094,1.11160065586644,1.14762121889036,1.17399341681859,1.11279521535448,1.100114506943,1.06721817642625,1.06005081949802,1.00859287232099,0.980015333799463,1.00105795862721,0.950610792555448,0.906136423923871,0.890515261387989,0.868461855454975,0.863224171545883,0.848613790115265,0.825365824694213,0.844386887311438,0.803784958655405,7,"prev_lose",5419.0962764606,217.653455188737,"risk",TRUE,"autists","not_trained"
"5","P301",1310053,"RESPONSE REW INV3_13",3,"3_13",2143,1307733,TRUE,TRUE,TRUE,FALSE,FALSE,TRUE,FALSE,FALSE,FALSE,"learning",FALSE,-1,0,FALSE,5259.06118383728,371.996247599825,0.223312421918546,0.1999957067509,0.572946215952607,0.696353399986089,0.76058394476599,0.815441792024358,0.813971564962158,0.766097296249243,0.631571520057867,0.211637915416748,0.261349967957413,0.28524115771818,0.270538887096168,0.271641557392822,0.328520966861718,0.400102646952621,0.43171252878994,0.454225380679888,0.465160194455008,0.557233164225335,0.673197323756426,0.666397523593749,0.689369821440637,0.655187042244465,0.7117907841392,0.739265652364077,0.750292355330581,0.730168622416711,0.727228168292308,0.721163481660731,0.715925797751639,0.708115216483697,0.681191683407142,0.744962782230104,0.736508976622448,0.675586442732504,0.685234807828195,0.703980202871255,0.699201964919103,0.672462210225326,0.660424726153557,0.404421438947834,0.293511184943056,0.313543028665546,0.270630776287558,0.0999198227454203,-0.379767799758228,-0.878524640712055,-1.37728148166588,-1.87603832261971,-2.37479516357354,-2.87355200452737,-3.37230884548124,-3.47502327155471,-2.35060029723377,-1.54486992255201,-0.880189456650151,-0.505097777406163,-0.103542011042555,0.0797769257756109,0.0973277613306322,0.196384309646416,0.227534745526795,0.22845363744067,0.225421294124881,0.149796489612925,0.169368887378475,0.194087079861727,0.265760649144016,0.262360749062677,0.290570730818657,0.316391593598559,0.269987551947843,0.273203673646411,0.425372174584198,0.518088368694236,0.562654626517202,0.532331193359308,0.535639204249261,0.671818985885612,0.740092655086566,0.850359684751629,0.924054816244446,0.909076878048274,0.888769366751625,0.910730883493249,0.966783290239659,0.981945006818602,0.914130783574591,0.921757586459758,0.890882818153539,0.885185688287511,0.865888958096126,0.610437006038728,0.622198822536337,0.607404662722939,0.647560239359299,0.584432364876051,0.588016043340165,0.599042746306669,0.629549957847338,0.666213745210974,0.472580246659551,13,"prev_rew",5419.0962764606,217.653455188737,"risk",TRUE,"autists","not_trained"
"6","P301",1427371,"RESPONSE REW INV3_36",3,"3_36",1844,1425350,TRUE,TRUE,TRUE,FALSE,FALSE,FALSE,FALSE,TRUE,FALSE,"risk",FALSE,-1,0,FALSE,5259.06118383728,371.996247599825,0.00610591137955683,0.0109430969945842,-0.0392195770712682,-0.0146851629707951,0.0303405408091066,0.109549023785176,0.156412511392831,0.208697461292349,0.186644055359336,0.175525463201442,0.283219595507652,0.348185253818653,0.399275644230132,0.399367533421521,0.346806915947839,-0.125929884110021,-0.716446012311234,-1.30027565448213,-1.88410529665308,-2.46793493882397,-3.05176458099487,-3.63559422316582,-4.21919033347986,-3.95967192762121,-3.07468712536769,-3.32085826909494,-2.7977331025256,-2.36346478402803,-1.5265380288702,-0.785969621226508,-0.517628121686272,-0.515481256032957,-0.408581965232245,-0.760940258526954,-1.13998317300061,-1.04911395163746,-0.476887795650183,-0.459529092040796,-0.523211933656204,-0.586771651019129,-0.650331368382095,-0.71389108574502,-0.397053521856861,-0.0346251175018906,0.0396213491392514,-0.0588838640282075,-0.22024128410475,-0.589585581581169,-1.10415356720254,-1.62222674260373,-2.14029991800488,-2.65837309340607,-3.17644626880726,-3.69451944420841,-4.18960309253933,-3.57989389961645,-2.86334198517631,-2.45737553762611,-2.17628650117158,-1.87808256858164,-1.03844615075685,-0.719475260913323,-0.635856096750651,-1.0354274475981,-1.19184044714236,-1.09236688055204,-1.03798485031343,-0.991776205219107,-0.95249199160451,-0.921907149540103,-0.825239720200398,-0.689519384520979,-0.628872518205195,-0.586052155018597,-0.543507459406159,-0.494989966353533,-0.421938059200426,-0.431770202678896,-0.403652110114305,-0.48083903087985,-0.459980184434876,-0.305790121286561,-0.214636043430108,-0.163729431401404,-0.0495111665066773,0.0295263598342334,-0.0232436795174521,-0.0113771520808421,0.0746311310579085,0.153747724842593,0.0813390420292,0.0630530929430748,0.148510040933501,0.210810912694259,0.262820195019617,0.30472166629234,0.310510685349757,0.36435775150286,0.38273558978037,0.376762792340183,0.440350112780366,0.51046156580907,-0.605423010938503,36,"prev_rew",5419.0962764606,217.653455188737,"risk",TRUE,"autists","trained"
"7","P301",1690996,"RESPONSE LOSE VAL2_26",2,"2_26",1270,1689546,TRUE,FALSE,TRUE,FALSE,FALSE,FALSE,FALSE,FALSE,FALSE,"unused",FALSE,-1,0,FALSE,5259.06118383728,371.996247599825,0.342142547325896,0.342794988474497,0.359487624359322,0.195465417732541,0.235896661943061,0.274030676368896,0.328980412818653,0.358568732445447,0.357190394574633,0.376487124766018,0.370973773282766,0.338720667105733,0.251058378522008,0.271457779010047,0.299575871574638,0.267690322163155,0.265484981569855,0.342120567187076,0.363898305545925,0.397345971210993,0.381081584335396,0.0846470529191531,0.151818051823454,0.181682039024408,0.235161548411961,0.265209313995691,0.259971630086603,0.281565590062677,0.24582069461292,0.0193138378426019,-0.288837807221385,-0.593065535463977,-0.89729326370652,-1.20152099194911,-1.50574872019166,-1.80997644843425,-2.06507822816769,-1.71775943614769,-1.26823751187979,-0.944787558195602,-0.600111201300894,-0.301103772525793,-0.135591323369398,-0.290700733328569,-0.617089321549181,-0.943477909769839,-1.27461607743243,-1.34147319741567,-0.708724225520979,-0.493427850099944,-0.365609984879855,-0.251116052410968,-0.156286406899013,-0.0443653717889748,-0.1135579329038,-0.155459404176523,-0.0946287594779643,-0.113006597755475,-0.0896667431430368,-0.0981205487506923,-0.124860303444469,-0.14277869576504,-0.171264345095185,-0.107401357080833,-0.0395871338368222,-0.0283766524875385,-0.0218525198990219,-0.00237201132486172,0.0448590330483392,0.076101358120108,0.176076798349766,0.209065018057899,0.196108642072251,0.132888878397618,0.0583667441823118,-0.981267567176459,-2.89954632658301,-3.24199437058657,-1.82224127547164,-0.759925648705402,-0.340616124822443,-0.249002601009055,-0.330324535387038,-0.405030447985119,-0.36515053892292,0.0188543918856625,0.0347512219957092,-0.0301225471239025,-0.0406898041334719,-0.106758132741123,-0.133773555009064,-0.13303844147796,-0.0941693135210249,-0.107217578698058,-0.135060003688488,-0.0906775242483011,-0.0582406396884931,-0.127525089994708,-0.0814886051095458,-0.0113771520808421,0.0941116396320686,0.150807270718189,-0.452234691344164,26,"prev_rew",5419.0962764606,217.653455188737,"risk",TRUE,"autists","not_trained"
"8","P301",1912337,"RESPONSE REW INV5_4",5,"5_4",3875,1908289,TRUE,TRUE,FALSE,FALSE,FALSE,FALSE,FALSE,FALSE,FALSE,"unused",FALSE,-1,0,FALSE,5259.06118383728,371.996247599825,-0.435114847133535,-0.366110270477418,-2.50093101434381,-2.69077408375049,-2.92362129472655,-2.80361401077441,-2.76033420163087,-2.97820347441076,-3.15444694349208,-3.3108423472337,-3.34419812370738,-3.28676737909016,-3.22235305592749,-3.12798285637247,-2.9948354180519,-2.87390924218588,-2.71898406550647,-2.56865334839643,-2.40380413904717,-2.28774809032469,-2.24088460271703,-2.20284247748258,-2.10516426703762,-2.09257544781752,-1.96246035281275,-1.88484579388727,-1.64490544417605,-1.47066940050657,-1.40037416909509,-1.34726221647308,-1.2902909178128,-1.27531297961663,-1.39320681216686,-1.32079812935347,-1.32309535913816,-1.21374722138697,-1.20363941033434,-1.21071487807118,-1.2371789651908,-1.22036324316687,-1.26318360635347,-1.27999932837739,-1.31647933735825,-1.26162149009988,-1.27292386064055,-1.62047007668897,-2.04614571422663,-2.4060643354046,-2.76598295658256,-3.12590157776048,-3.48582019893844,-3.84573882011636,-4.20565744129432,-4.36631076333508,-3.7648668418796,-3.30992345531982,-3.06779543601362,-2.78082549131029,-2.55303218586055,-2.23082404896285,-1.94660815459564,-1.80735139775056,-1.69515469506636,-1.6077680740568,-1.54831576722905,-1.51064119876015,-1.38410978221949,-1.35001889221471,-1.29975550452572,-1.26704295239175,-1.22789815686065,-1.06185438802335,-1.03244984677933,-0.951587358358283,-0.841044661119055,-0.875778775463552,-0.8510605829803,-0.829528594784447,-0.874030743869245,-0.859850384128553,-0.710109631791137,-0.588589710380771,-0.729123626009018,-0.650925924138208,-0.521821610238695,-0.423959621410955,-0.321595062205218,-0.353082425120674,-0.834551158261016,-1.02461992041844,-0.969994214275159,-0.924837931118031,-0.911410976621968,-0.867437664147233,-0.849866023492261,-0.841202627931206,-0.823134528501084,-0.805066429070961,-0.807204659580631,-0.779111346123843,-0.591381728119074,-0.244076683999325,-1.02885085344998,4,"prev_lose",5419.0962764606,217.653455188737,"risk",TRUE,"autists","not_trained"
"9","P301",1926025,"RESPONSE LOSE VAL5_6",5,"5_6",1586,1924267,TRUE,FALSE,TRUE,FALSE,FALSE,FALSE,FALSE,FALSE,FALSE,"unused",FALSE,-1,0,FALSE,5259.06118383728,371.996247599825,-0.687959078891855,-0.515678161443083,-0.819358811951592,-0.703670319994666,-0.553715035866561,-0.527492486050062,-0.49574345772291,-0.424668057434892,-0.451366313784146,-0.473597569765006,-0.495342702281769,-0.434444747373373,-0.413313486068967,-0.388651402914969,-0.4435320191765,-0.528897077975541,-0.48083903087985,-0.3763610202722,-0.362669530755456,-0.295866088616706,-0.274823463788956,-0.354232559808832,-0.482211757196972,-0.617239767442041,-0.752267777687115,-0.887295787932184,-1.02255036465679,-0.987909843011025,-0.829439359178224,-0.62473851436409,-0.464390865621475,-0.43278098378416,-0.407143899387033,-0.351459049406173,-0.372042228276987,-0.279326034166944,-0.233013881707618,-0.194604199707623,-0.222079067932499,-0.218311611085611,-0.216565716449247,-0.172734572157384,-0.169334672076046,-0.122471184468395,-0.156286406899013,-0.404029326390556,-0.832986895449501,-1.22122492105592,-1.60946294666238,-1.9977009722688,-2.38593899787526,-2.77417702348168,-3.16241504908814,-2.9649999140235,-2.36153511100889,-2.02540444891322,-1.78226564850176,-1.54776443208072,-1.34037052711902,-1.23276828400419,-1.12240936514774,-1.09952895649224,-0.894616059697998,-0.860984615650155,-0.811823898257815,-0.717821255468348,-0.638980329257825,-0.633926423731512,-0.546080356765012,-0.404662891219565,-0.39372807744445,-0.324910008128475,-0.433231760949468,-0.541591656453624,-0.579879244903959,-0.5218551941056,-0.4542210177036,-0.3865868413016,-0.295596951238898,-0.299541656272209,-0.244408141439677,-0.367574116345767,-0.273956259545235,-0.173452456465099,-0.0720929352901682,-0.0483166070186381,0.0043970082219799,0.0831858789792539,0.0650796343708572,0.0469733897625065,0.0341238406200183,-0.00402601676983616,-0.0058538963733791,-0.11529007167317,-0.262477848296981,-0.417032166802745,-0.544610129702808,-0.519708158836785,-0.449229149042532,-0.390052509788947,-0.352653608894212,-0.389317396257847,-0.454993281443947,6,"prev_rew",5419.0962764606,217.653455188737,"risk",TRUE,"autists","not_trained"
"10","P301",1977268,"RESPONSE REW INV5_17",5,"5_17",2450,1974645,TRUE,TRUE,FALSE,FALSE,FALSE,FALSE,FALSE,FALSE,FALSE,"unused",FALSE,-1,0,FALSE,5259.06118383728,371.996247599825,NA,-1.8714399599003,-0.481564572620195,-0.41431125631526,-0.458326178989897,-0.452445270741095,-0.483871374195639,-0.544610129702808,-0.556188167817642,-0.57879290889898,-0.581457695449219,-0.619224153109504,-0.502065434090374,-0.359729076631053,-0.291455407430103,-0.204528232377478,-0.138276125387052,-0.107585135463608,-0.0430789231095461,-0.0104582601669674,0.0180273891631773,0.0371403409717876,0.0804201501153253,0.0536803954215446,-0.317735716166944,-0.599284198578405,-0.575484898009027,-0.61821337200424,-0.621429493702803,-0.535053653798503,-0.324903073095171,-0.176593918195662,-0.0871857349755731,-0.0631107668320352,-0.0364629013296441,0.070679895828241,0.113959704971779,0.146396589531587,0.129672756699051,0.132980767589004,0.133715881120103,0.161650195301919,0.198313982665555,0.210902801885648,0.179844255196655,0.195910455029311,-0.31640658522997,-0.941008411303648,-1.56561023737732,-2.190212063451,-2.81481388952467,-3.43941571559835,-3.982558860953,-3.16060351931505,-2.32303353981751,-1.77463884561659,-1.48212929537535,-1.16934505140575,-0.922458484688428,-0.770289983750641,-0.687314043927679,-0.616651255750651,-0.450791265296121,-0.240181238635849,-0.0564947450521291,0.0275838650674825,0.0762851365028829,0.164223092660772,0.21834582638804,0.239296562024404,0.220183610215793,0.132888878397618,0.0601126388186758,0.008470913258868,-0.22088450844446,-0.187712510353556,0.0198651729909267,0.108905799445466,0.170747225249289,0.342028677995686,0.461852183565054,0.358568732445447,0.304078441952626,0.406626779541137,0.496034962761226,0.494932292464573,0.443014899330609,0.328796634435878,0.376854681531568,0.365552310990899,0.331553310177506,0.329347969584203,0.391373173770801,0.386962492584198,0.379060022124872,0.451744372512425,0.622842046876047,0.688910375483698,0.773907877517184,0.792745161751634,0.752405806732495,0.678159340091353,0.131456938498492,17,"prev_lose",5419.0962764606,217.653455188737,"risk",TRUE,"autists","not_trained"
"11","P301",2035361,"RESPONSE LOSE VAL5_28",5,"5_28",1118,2034069,TRUE,FALSE,TRUE,FALSE,FALSE,FALSE,FALSE,FALSE,FALSE,"unused",FALSE,-1,0,FALSE,5259.06118383728,371.996247599825,0.76127631913831,0.634409875080734,0.103392447962213,0.162385308833019,0.238745226876079,0.26750654378038,0.309683682627268,0.499342973651175,0.604647986981311,0.745973563335368,0.832165624856894,0.877191328636795,0.950610792555448,0.679262010388003,0.609334335742078,0.636349758010019,0.620361038708583,0.594080729971742,0.567432864469355,0.451376815746875,0.449355253536346,0.426934290837787,0.448436361622471,0.297186752598559,0.189584509483735,0.265852538335405,0.33513698864162,0.389902946708601,0.343590794249275,0.336607215703819,0.230842756416748,0.168541884655986,0.259604073321053,0.232588651053112,0.160271857431105,0.035486335526809,-0.27348850507958,-0.679011365721111,-1.00435507634452,-1.32969878696798,-1.65504249759143,-1.98038620821484,-2.3057299188383,-2.63107362946176,-2.88036200905725,-2.22949034298498,-1.85586889080319,-1.73117525809028,-1.29846905584629,-0.991467267420478,-0.795375732999443,-0.634569648071226,-0.541669675578409,-0.452720938315255,-0.557658394879841,-0.850141691066421,-0.733718085578395,-0.718556368999448,-0.688508603415719,-0.61711070170759,-0.554350383989892,-0.476520238884633,-0.391614626042536,-0.301930775248283,-0.223549294994703,-0.116774054602363,-0.106758132741123,-0.0583325288798827,0.00231433743590548,0.0765608040770474,0.10155466413446,0.15898540875168,0.156228733010056,0.10991658055073,0.0844632745363739,-0.200576997147814,-0.689795052095143,-0.316541156678905,-0.0762509212004538,0.0513831656368558,0.192065517651199,0.281289922488513,0.364541529885635,0.286435717206215,0.195005971775602,0.298151589108129,0.296635417450235,0.312256579986121,0.29571652553636,0.26713898701483,0.272560449306697,0.273755008794736,0.427577515177497,0.399735090187071,0.379519468081807,0.38209236544066,0.408280784986112,0.468651983727736,0.47977057588563,0.563757296813852,0.632030966014802,0.677056669794704,-0.00513443014094868,28,"prev_rew",5419.0962764606,217.653455188737,"risk",TRUE,"autists","not_trained"
"12","P304",2168982,"RESPONSE LOSE VAL3_20",3,"3_20",1807,2167005,TRUE,FALSE,FALSE,FALSE,FALSE,FALSE,FALSE,TRUE,FALSE,"risk",FALSE,-1,0,FALSE,3341.98174573963,182.242724843907,-1.6350439640207,-1.36944640182435,-0.708446123816274,-0.54320645241414,-0.387333158324985,-0.24557932854346,-0.060768122457485,0.0544243388245446,0.217567060081983,0.387420021802449,0.33974935517967,0.340727931913861,0.312489003298606,0.274464307341431,0.242590665142035,0.258946876270674,0.149206485364855,-0.110815332577589,-0.177498347178958,-0.190639234752394,-0.178563613472228,-0.0709467262697245,-0.0162776349740794,0.0383914563215689,0.245927041685077,0.231966117742236,0.149066688688542,0.140678888109755,0.0650488862243433,-0.0870498976043542,-0.135000157579763,-0.27982951424018,-0.3576962629466,-0.498471515993934,-0.647075382914806,-0.663431594043441,-0.661474440575059,-0.64679578956218,-0.582069928429193,-0.617857877565357,-0.609190483633944,-0.652387656614704,-0.68551946890092,-0.676572481616878,-0.690412352571879,-0.659377490430361,-0.564036157184798,-0.404388352835188,-0.330156317712911,-0.235094577819974,-0.0611875124864241,0.118870606604902,0.213792549821528,0.304939982777697,0.33667382830078,0.458436733369528,0.521904424415694,0.576145534825192,0.756343450592834,0.824144838604707,0.885235986153552,1.00252539758028,1.13435366334357,1.2378032038153,1.37410496322061,1.4814688106291,1.54759263852522,1.63538495124987,1.65257994243639,1.50062095528401,1.05131443761356,0.516312557363167,0.0851796076134366,-0.14646348503744,-0.265849846608866,-0.199166832007497,-0.0404976043920787,0.117053249812833,0.147528925249099,0.152188814459558,0.156848703669951,0.177731085449115,0.195053717079186,0.253075415865521,0.799960013602533,1.04068989021376,0.887332936298247,0.654291876884241,0.447392795940787,0.292637875262139,0.179682160801121,0.222040553724003,0.27222756052042,0.380010797957853,0.43592946848311,0.412863016891444,0.459135716751093,0.437746825275183,0.424046750996494,0.332060537982444,0.185274027853645,0.0389069077537872,0.650202824102081,20,"prev_lose",3368.23378644187,143.064917760994,"risk",TRUE,"autists","trained"
"13","P304",2182716,"RESPONSE LOSE VAL3_22",3,"3_22",2346,2180200,TRUE,FALSE,TRUE,FALSE,FALSE,FALSE,FALSE,TRUE,FALSE,"risk",FALSE,-1,0,FALSE,3341.98174573963,182.242724843907,0.168676307516737,0.264596306660519,0.438748547154472,0.200353552779414,0.36170021077822,0.259366266299613,0.183736264414201,0.0691029898374239,0.0918898480764677,-0.00610762201904512,-0.0458098780919797,-0.345673748783668,-0.547959539408786,-0.628482424965156,-0.656301963551471,-0.615621130744349,-0.617019097507479,-0.678529635085263,-0.709005310521526,-0.692928692745516,-0.64372026268329,-0.560960630305909,-0.508956266717419,-0.412776153413979,-0.416271070321808,-0.672238784651171,-0.615621130744349,-0.578994401550304,-0.582209725105506,-0.413335340119231,-0.313520513231646,-0.358674839680791,-0.360631993149176,-0.303594949213412,-0.338124728262759,-0.299820438952958,-0.292411215108361,-0.337565541557507,-0.322607297192001,-0.304853119300233,-0.284722397911139,-0.249074245451288,-0.178197330560526,-0.108438789080268,-0.0648222260705656,-0.0312710237554102,0.0573600690271211,0.0709203466294963,0.104751142297275,0.320457413848455,0.255032569333903,0.240074324968398,0.249720295634005,0.316403310235374,0.381688358073613,0.490030782216298,0.570134277743729,0.694133929633485,0.904527927484764,1.01580608183003,1.105974938052,1.28016159673818,1.3399945742002,1.54899060528835,1.63468596786831,1.63957885153927,1.69647609879872,1.80803384649661,1.81991656398322,1.68864748492518,1.34782318807374,0.87586960884057,0.516172760686854,0.252795822512895,0.156475912533138,0.112160366141874,0.314330054442604,0.513895733467614,0.697526960828044,0.881158188188543,0.976805178573845,0.892086023292896,1.0485185040873,1.08486563992872,1.15574255481948,0.970372162028255,0.832253045830871,0.689800232667778,0.587329268930246,0.521205441034129,0.472276604324529,0.484019525134832,0.468641890740388,0.486675661984783,0.444177472385588,0.461791853601044,0.407970133220482,0.332479928011387,0.194640405166626,0.0046567220570666,-0.156109455703047,-0.286399958026895,1.04053844381443,22,"prev_rew",3368.23378644187,143.064917760994,"risk",TRUE,"autists","trained"
"14","P304",2393942,"RESPONSE LOSE VAL5_1",5,"5_1",2967,2390797,TRUE,FALSE,TRUE,FALSE,FALSE,TRUE,FALSE,FALSE,FALSE,"learning",FALSE,-1,0,FALSE,3341.98174573963,182.242724843907,-0.52621999514011,-23.5503842533259,-2.49406907036404,-2.60618600476718,-2.72347541619391,-2.73521833700422,-2.5553000145892,-2.54076116025264,-2.43283812613889,-2.3021282337861,-2.13185588203669,-2.01428687725734,-1.92607517450375,-1.77649273084868,-1.62495313372524,-1.46432675264144,-1.36744765595643,-1.23352244004844,-1.21898358571187,-1.14447195723697,-1.17243129249959,-1.15523630131308,-1.13762192009762,-1.11553404524015,-1.26707364236359,-1.12713716937414,-1.09470434046949,-1.04745306387564,-0.974618995516497,-0.906118624123059,-0.984264966182104,-1.00565385765801,-1.06968073540944,-1.02508559566554,-1.03822648323898,-0.992512970084582,-1.02941929263125,-1.05192655751767,-1.08393999639338,-1.12350245578999,-1.07555219581459,-1.16124755839454,-1.15383833454995,-1.13901988686075,-1.1278361527557,-1.06856236199893,-1.10644726127979,-1.10183397096146,-1.03445197297852,-0.966930178319274,-0.905978827446746,-0.796797623246182,-0.75583719708643,-0.695165439566524,-0.608771093605005,-0.451639629429032,-0.294368368576747,-0.066499786186325,0.130613527415208,0.250978465720822,0.429219228020079,0.541475959099532,0.622278438008531,0.650936756652725,0.671207274718131,0.738589272701065,0.801218183689353,0.837006132825517,0.92479844555017,0.551401523117766,-0.367062640259582,-1.40365499512153,-2.15995501397564,-2.61247685520128,-2.77114608281669,-2.78330839365594,-2.59947576430415,-2.36210100792444,-2.00044700630234,-1.62928683069095,-1.28818294048688,-0.977834319071699,-0.782957752291181,-0.486868391859944,-0.374611660780491,-0.121160286624762,-0.0272169201423295,0.109504229291924,0.1613687962041,0.213652753145215,0.269990813699411,0.369526047234367,0.397485382496996,0.368128080471237,0.387979208507701,0.380709781339418,0.369805640586994,0.362116823389771,0.315145140148557,0.315983920206435,0.301864455898808,0.278238817601886,-0.78846224642101,1,"prev_rew",3368.23378644187,143.064917760994,"risk",TRUE,"autists","not_trained"
"15","P304",2486496,"RESPONSE LOSE VAL5_14",5,"5_14",2661,2483667,TRUE,FALSE,TRUE,FALSE,FALSE,FALSE,FALSE,TRUE,FALSE,"risk",FALSE,-1,0,FALSE,3341.98174573963,182.242724843907,-0.567717779288269,-0.704613256064753,-0.374751457456804,-0.373633084046296,-0.393344415406451,-0.342178831875839,-0.283743821176948,-0.239148681433055,-0.0627252759258672,-0.0743284000598602,0.0278629703250462,0.175907650540666,0.246784565431429,0.504569636552864,0.471158230914022,0.458716326722154,0.339190168474418,0.211416006324204,0.141657464843946,0.140259498080816,-0.0256791567028864,-0.155690065674108,-0.141011414661229,-0.206156665823155,-0.329736927683972,-0.285421381292704,-0.337285948204881,-0.432207891421504,-0.410399609916655,-0.42661602436898,-0.377826984335693,-0.373493287369983,-0.323446077249879,-0.26696822001937,-0.214684263078255,-0.174283023623755,-0.184208587641989,-0.109976552519711,-0.0695753130652113,-0.106481635611882,-0.123536830122086,-0.125214390237842,-0.158625795876685,-0.0191087129161683,-0.0614671058390501,-0.0829957939912735,-0.0631446659548095,-0.0167321694188438,-0.0624456825732412,-0.0142158292452096,0.0292609370881796,0.147389128572786,0.14990546874642,0.205824139271677,0.200931255600718,0.249580498957692,0.315145140148557,0.407830336544169,0.452705069640688,0.525539137999836,0.628709085118933,0.628289695089994,0.674562394949644,0.785700752618593,0.941574046707748,1.0081172646328,1.06641247865539,1.09758713747322,1.05802467807659,0.899914637166431,0.549304572973071,0.0426814180142418,-0.306530679415989,-0.519161424088279,-0.547260556027221,-0.511193013538431,-0.425218057605847,-0.286115022126134,-0.120060612132775,0.0802849430930983,0.280630498318969,0.438166215304122,0.404195622960027,0.499816549558216,0.497160412708268,0.513516623836904,0.544551485978422,0.445575439148718,0.210856819618952,0.0742754668610119,0.00801184228858215,0.0537253554429795,0.0266048002382291,0.0774907904162144,0.0959439516895483,0.0616937659928278,0.125021660362681,0.128796170623136,0.180660737535312,0.312069613269667,0.364493366887096,0.454941816461699,0.338421286754695,14,"prev_rew",3368.23378644187,143.064917760994,"risk",TRUE,"autists","trained"
"16","P304",2500361,"RESPONSE REW INV5_17",5,"5_17",2965,2497228,TRUE,TRUE,FALSE,FALSE,FALSE,FALSE,FALSE,TRUE,FALSE,"risk",FALSE,-1,0,FALSE,3341.98174573963,182.242724843907,0.0145980770619743,0.118695534131778,-0.166314613073907,-0.0811784371992043,-0.0778233169676888,-0.0676181595968291,-0.168970749923858,-0.216781213222953,-0.298702065542453,-0.428712974513675,-0.415711883616552,-0.527129834638127,-0.585145455308083,-0.629740595051976,-0.650430503146321,-0.600243496349901,-0.607512923518184,-0.680906178582584,-0.796238436540927,-0.881374612415633,-0.939669826438211,-0.968188348406095,-1.00132016069231,-0.985523136268925,-0.963575058087759,-0.936174909530382,-0.882213392473511,-0.876341932068358,-0.855512227297699,-0.852716293771439,-0.832725369058659,-0.858308160823963,-0.828811062121891,-0.738502409223601,-0.663012204014502,-0.828811062121891,-0.810357900848554,-0.71851148451082,-0.685379672224607,-0.605415973373489,-0.732491152142135,-0.761009674110015,-0.817068141311585,-0.859007144205528,-0.873126608513155,-0.878998068918308,-0.832166182353407,-0.818186514722092,-0.819864074837849,-0.760590284081076,-0.713199210810923,-0.583048505163384,-0.559422866866466,-0.530484954869643,-0.533280888395906,-0.466597873794538,-0.411238389974533,-0.40354957277731,-0.388451531735492,-0.313380716555333,-0.202801545591639,-0.102846922027741,0.00577509546757073,0.178144397361675,0.265936710086331,0.381967951426239,0.436209061835736,0.509182926871197,0.551960709823018,0.315704326853809,-0.363847316704379,-1.2310060998748,-1.92355883433011,-2.31792525820949,-2.48612532981587,-2.42210393428708,-2.20966780851714,-1.99723168274714,-1.70897093618944,-1.55058130192664,-1.35626392185138,-1.12420143917156,-0.90849516762038,-0.770655644775623,-0.773870968330825,-0.771354628157188,-0.765063777723096,-0.647075382914806,-0.483233678275802,-0.42801399113211,-0.302057185773969,-0.238030308022551,-0.174003430271129,-0.20685564920472,-0.189940251370829,-0.237610917993612,-0.216222026517698,-0.12325723676946,-0.148001248476886,-0.187004521168252,-0.0876090843096094,-0.0894264411016786,-0.886290795532645,17,"prev_lose",3368.23378644187,143.064917760994,"risk",TRUE,"autists","trained"
"17","P304",2571501,"RESPONSE LOSE VAL5_32",5,"5_32",1185,2570147,TRUE,FALSE,TRUE,FALSE,FALSE,FALSE,FALSE,TRUE,FALSE,"risk",FALSE,-1,0,FALSE,3341.98174573963,182.242724843907,1.2647797823767,1.12935400583323,0.786539532676474,0.866922621556531,0.986169186451641,1.00853665466174,1.09884530756003,1.13910675033822,1.11534131536499,1.16245279528251,1.23277052346802,1.25919209529121,1.29162492419586,1.3409731509344,1.32028324284005,1.30224947159566,1.37158862304697,1.43729306091415,1.4611982925637,1.45197171192703,1.46525239617678,1.49726583505249,1.43100221048006,1.26003087534909,1.09549018732852,0.958629241217952,0.984351829659569,0.784302785855463,0.67917568526798,0.588307845664437,0.547766809533624,0.58718947225393,0.476889894642862,0.550982133088827,0.540637179041654,0.514914590600037,0.584673132080295,0.655550046971058,0.55238009985196,0.495762445945135,0.536163685399634,0.468502094064075,0.480105218198064,0.438725402009374,0.40433541963634,0.422369190880735,0.416497730475585,0.472276604324529,0.589566015751254,0.556294406788728,0.544411689302109,0.52358198453145,0.559789323696556,0.550003556354636,0.585651708814486,0.636258105639846,0.703919696975406,0.844555153346426,0.974845655670274,1.0963289673864,1.18663762028469,1.2984749613352,1.43086241380375,1.52019248996784,1.61707158665285,1.66376367654144,1.69619650544609,1.75658866961337,1.76343870675271,1.53822626121224,1.09157588039175,0.550842336412514,0.137882954583491,-0.220555723483408,-0.292551011784674,-0.265710049932553,-0.13913192601301,0.0590738727256615,0.261865347624338,0.507284453489179,0.572650617917363,0.741385206227329,0.9017319939585,0.934025026186839,1.00434275437235,0.91319532141618,0.817434598141676,0.731599438885408,0.70909217399899,0.749213820100864,0.777033358687179,0.781926242358138,0.84874905363582,0.844135763317487,0.854201124012034,0.774517018513542,0.884117612743045,0.846092916785873,0.851265393809457,0.890827853206076,0.92647600566593,0.969812975323003,0.822676973503422,32,"prev_rew",3368.23378644187,143.064917760994,"risk",TRUE,"autists","trained"
"18","P304",2658666,"RESPONSE LOSE VAL2_1",2,"2_1",3598,2654883,TRUE,FALSE,TRUE,FALSE,FALSE,TRUE,FALSE,FALSE,FALSE,"learning",FALSE,-1,0,FALSE,3341.98174573963,182.242724843907,-1.58883728939482,-23.5503842533259,-1.49675958154609,-1.50654534888801,-1.49116771449356,-1.47830642027275,-1.42043059627911,-1.35290880161986,-1.28077371664228,-1.23925410377728,-1.18179766981258,-0.718651281187133,-0.634214088693996,-0.593812849239496,-0.54320645241414,-0.521398170909291,-0.512451183625248,-0.490922495473025,-0.553271813108687,-0.644419246064855,-0.665808137540766,-0.741298342749864,-0.836639675995426,-0.69977872988486,-0.654624403435715,-0.639945752422836,-0.532442108338028,-0.497492939259743,-0.504902163104339,-0.480996931454791,-0.476104047783832,-0.479878558044287,-0.808820137409111,-0.909333947678261,-0.925690158806897,-1.0798858927803,-1.16683942544707,-1.30985142531541,-1.51800867634568,-1.70421784919479,-1.84932679920783,-1.87281264082844,-1.87001670730218,-1.90636384314359,-1.92481700441693,-1.90999855672773,-1.91167611684349,-1.85631663302349,-1.78585910816167,-1.72420877390757,-1.44377664122341,-1.29950647126824,-1.26148177531106,-1.14195561706333,-1.06311029162272,-0.924571785396393,-0.840414186255881,-0.72158701138971,-0.569208634208383,-0.503783789693835,-0.32750018086296,-0.250472212214419,-0.16505644298709,-0.0948785114778926,-0.0212056630608667,0.00241997523605518,0.0384875177248449,0.0119261492253498,0.0633713261085871,0.0408640612221694,-0.357416669593974,-0.921915648546442,-1.38184671361668,-1.66297782968241,-1.76530899674363,-1.81675417362687,-1.72476796061282,-1.55896910250544,-1.41344076246345,-1.22191931591445,-1.01557942167625,-0.913388051291342,-0.740599359368296,-0.633235511959805,-0.577037248081921,-0.527409427990753,-0.509655250098984,-0.789667992754209,-0.745771836391884,-0.782678158938552,-0.833564149116537,-0.871588845073712,-0.924571785396393,-0.97294143540074,-0.923313615309575,-0.953509697393212,-0.954348477451094,-0.863620434523864,-0.691810319335009,-0.667625494332838,-0.777086291886028,-1.01543962499994,-0.764859907570142,1,"prev_rew",3368.23378644187,143.064917760994,"risk",TRUE,"autists","not_trained"
"19","P304",2707893,"RESPONSE REW INV2_10",2,"2_10",2097,2705627,TRUE,TRUE,TRUE,TRUE,FALSE,FALSE,FALSE,TRUE,FALSE,"risk",FALSE,-1,0,FALSE,3341.98174573963,182.242724843907,0.308287207515839,0.297230261404544,0.405313996370531,0.358761703158256,0.346739188995327,0.278658207630825,0.236859001413195,0.214910923232033,0.144593195046522,0.110482806026115,0.114956299668134,0.134807427704602,0.265517320057389,0.320038023819516,0.383785308218308,0.398743552583816,0.468921484093014,0.581038418496154,0.679455278620606,0.677917515181159,0.710210547409498,0.705597257091162,0.708393190617425,0.676799141770655,0.681552228765301,0.62717132167949,0.334157488127143,0.296831775551533,0.370784217321188,0.392173108797098,0.422229394204422,0.413562000273009,0.383925104894621,0.313467580032797,0.199393492161275,0.163885136377734,0.118870606604902,0.0801469272661617,0.0547039321771706,0.171154563546017,0.0742754668610119,0.0243680534172177,-0.0139362358925835,-0.079780470436071,-0.0671987695678901,-0.085512134164911,-0.119410897277556,0.0287002056683076,0.200549711080829,0.372399216493423,0.26812788782498,0.290401128441131,0.291659298527948,0.325490094195729,0.410486473394119,0.257828502860166,0.20722210603481,0.197296542016577,0.238955951557893,0.23881615488158,0.383925104894621,0.502752279760792,0.645624482952824,0.746278089898287,0.868180791643348,0.870976725169612,0.88915029309032,0.877686965632643,0.838963286293902,0.570973057801607,-0.175541193710576,-0.980770049274276,-1.58189575742079,-1.90580465643834,-2.05804323694335,-1.99429595254456,-1.88231881481773,-1.67835546407686,-1.38967532749022,-0.985942526297864,-0.69572462627178,-0.412216966708724,-0.191338218133959,0.056241695616617,0.172692326985464,0.308994086390778,0.390914938710278,0.448371372674981,0.542454535833726,0.567478140893779,0.605083446822015,0.639193835842419,0.648140823126462,0.681272635412675,0.704618680356971,0.717759567930407,0.783464005797584,0.725867775156568,0.722512654925053,0.720695298132983,0.601169139885244,0.411884440157249,-0.378590041193902,10,"prev_rew",3368.23378644187,143.064917760994,"risk",TRUE,"autists","trained"
"20","P304",2713537,"RESPONSE REW INV2_11",2,"2_11",2959,2710408,TRUE,TRUE,TRUE,TRUE,TRUE,FALSE,FALSE,TRUE,FALSE,"risk",FALSE,-1,0,FALSE,3341.98174573963,182.242724843907,0.543456799047965,0.536693674064897,0.0913306613712156,0.0632315294322741,0.0986000885394988,0.10097663203682,0.0513488119456551,0.0784693671504055,0.193941421785061,0.125021660362681,0.154518759064756,0.228610997510721,-0.143947144863805,-0.220276130130782,-0.161421729402948,0.0169588295726215,0.128935967299449,0.38560266501038,0.511000283663269,0.455361206490638,0.387559818478762,0.395108838999675,0.368687267176489,0.39720578914437,0.444037675709275,0.519108490889431,0.420132444059727,0.194500608490313,0.258807079594361,0.373859744200074,0.481782778313821,0.498977769500337,0.464028600422052,0.419293664001845,0.380569984663105,0.343663662116437,0.32381253407997,0.342265695353304,0.351212682637347,0.397345585820683,0.382527138131491,0.405873183075786,0.342824882058559,0.265796913410018,0.27656125748613,0.353589226134671,0.296412385522594,0.310811443182847,0.51812991415524,0.795626316636826,0.863287907972386,0.90033402719537,0.911657557976734,0.88160127256941,0.845114340051678,0.895441143524412,0.885096189477239,0.950521033991787,1.05341138775826,0.950800627344417,1.03286127634023,1.0900381169523,1.18202432996635,1.37843866018632,1.46748914299779,1.49363112146835,1.4771351136634,1.50621282233653,1.45322988201385,1.21948983921827,0.765290437876873,0.187370977998343,-0.254386519151186,-0.48267449157055,-0.596329189413134,-0.588780168892224,-0.516645083914642,-0.399914859193169,-0.0497241850287473,-0.0209260697082407,0.153959572359504,0.308994086390778,0.439144792038313,0.626612134974238,0.649259196536966,0.634999935553025,0.688262469228332,0.721673874867174,0.751730160274501,0.740965816198386,0.763053691055865,0.723491231659244,0.818552971552183,0.745998496545661,0.719017738017224,0.702661526888588,0.73215862559066,0.681692025441617,0.649398993213279,0.599910969798427,0.542873925862666,0.410346676717806,0.501412561612791,11,"prev_rew",3368.23378644187,143.064917760994,"risk",TRUE,"autists","trained"
"21","P304",2790007,"RESPONSE REW INV2_24",2,"2_24",1312,2788525,TRUE,TRUE,TRUE,FALSE,FALSE,FALSE,FALSE,TRUE,FALSE,"risk",FALSE,-1,0,FALSE,3341.98174573963,182.242724843907,1.0712937513067,1.07583816364919,1.00462234772498,1.13547203675408,1.22941540323651,1.27205338951202,1.07228393906053,1.13155772981731,1.15923747172731,1.17223856262443,0.999030480672448,0.945628150320829,0.95094042402073,1.01930099873785,1.05998183154498,1.04222765365321,1.05606752460821,1.0282479860219,1.06809003877114,1.09646876406271,1.11268517851503,1.0081172646328,1.48538311756587,1.46944629646617,1.51376184285744,1.45001455845865,1.19334786074772,0.931089295984262,0.904108537455825,0.883139036008853,0.888451309708754,1.03873273674538,1.25793392520439,1.23388889687853,1.25401961826762,1.31776690266642,1.33761803070288,1.33090779023985,1.39996734833854,1.5197730999389,1.60309191902154,1.56101311945128,1.56674478318012,1.62252365702907,1.64237478506553,1.63496556122093,1.68263622784372,1.609103176103,1.56940092003007,1.54954979199361,1.51851492985209,1.49279234141047,1.42904505701167,1.13057915308312,1.15979665843256,1.07871458617094,1.10499636131781,1.13505264672514,1.17112018921393,1.21627451566307,1.30616377853242,1.70192816917493,1.71954255039038,1.73631815154796,1.80090421600464,1.84088606543019,1.8962455492502,1.98417765865116,1.9334314651495,1.79475316224686,1.54801202855416,1.18985294383989,0.891666633263957,0.597394629624789,0.483739931782206,0.460533683514223,0.534346328607562,0.716527941516274,0.928588882014236,1.14536220920868,1.37577544502363,1.26072985873065,1.29190451754848,1.30043211480359,1.34810278142637,1.27988200338555,1.21194081869736,1.12372911594377,1.07577885596836,1.0878013701313,1.10541575134675,1.09702795076796,1.08738198010236,1.10080246102842,1.13351488328569,1.10891066825458,1.11100761839928,1.07969316290513,1.03188269960604,0.972469112172953,0.70503807038591,0.411045660099371,1.29412961464647,24,"prev_rew",3368.23378644187,143.064917760994,"risk",TRUE,"autists","trained"
"22","P304",2861747,"RESPONSE LOSE VAL2_38",2,"2_38",3282,2858296,TRUE,FALSE,TRUE,FALSE,FALSE,FALSE,FALSE,TRUE,FALSE,"risk",FALSE,-1,0,FALSE,3341.98174573963,182.242724843907,1.07073642236458,1.02513233622986,1.55038857205148,1.51711696308896,1.50761078909966,1.46091869921107,1.46077890253476,1.42792668360117,1.4484767950192,1.47280141669769,1.47895247045547,1.47419938346082,1.45802651223557,1.04344228051296,0.899495247137492,0.854061327335721,0.818255903615018,0.817110804369348,1.38751722081276,1.29274329760636,1.3176271059901,1.30951889876394,1.35746915873935,1.35509261524202,1.34908135816056,1.40891433562258,1.36612439643807,1.06586544818282,0.950241440639161,1.03337468891251,1.07189300322235,1.09663577779105,1.22139553440279,1.61012331401126,1.46035951250582,1.39479487131496,1.37368557319167,1.2973565879247,1.28197895353025,1.2410185273705,1.21417756551838,1.23654503372848,1.24087873069419,1.2719135928357,1.29372187434055,1.28910858402222,1.26730030251737,1.33651236608114,1.41520518605667,1.51899362756185,1.62678533752518,1.4441430980535,1.27638708647773,1.16720588227716,1.11576070539392,1.06291756174756,0.772699661721473,0.445435642472405,0.215889499966224,0.146690145191217,0.143055431607076,0.228051810805469,0.350793292608408,0.543293315891605,0.708672783970051,0.856577667509358,0.943111810147191,1.0049019410776,1.01524689512477,0.862169534561882,0.629967255205754,0.33807179506391,0.0977613084816175,-0.0706936864757187,-0.00624741869535814,0.229309980892286,0.473115384382407,0.67036849466025,0.954155747575929,1.25765433185176,1.44805740499026,1.58911225139022,1.75700805964231,1.85318817294575,1.86017800676141,1.97578985807238,1.99633996949041,2.02094418452152,2.00878187368228,2.02262174463728,1.97886538495127,1.94181926572828,1.93832434882045,1.91358033711303,1.92210793436813,1.93720597540995,1.94321723249141,1.98641440547218,1.99382362931677,1.94293763913879,1.85822085329302,1.63594413795513,0.889231841151503,38,"prev_rew",3368.23378644187,143.064917760994,"risk",TRUE,"autists","trained"
"23","P307",1247249,"RESPONSE LOSE VAL1_6",1,"1_6",3190,1243885,TRUE,FALSE,TRUE,FALSE,FALSE,TRUE,FALSE,FALSE,FALSE,"learning",FALSE,-1,0,FALSE,3166.31752391543,190.727263551456,-0.92800822054039,-0.916803920714112,-2.06826652522254,-2.04713376263288,-2.05763108261206,-2.06301786523295,-2.0421613479059,-2.10210656989227,-2.16702420660564,-2.17752152658482,-2.15348818873774,-2.15390255663166,-2.11771442722974,-2.03926077264849,-1.98484045591431,-1.93580692180103,-1.96802613967484,-2.08830346795669,-2.34023632862788,-2.592169189299,-2.7807164469326,-2.19948302496232,-2.09589105148355,-1.93594504443233,-1.86702185141113,-1.73041856905046,-1.67088771495799,-1.57779306145841,-1.51080358527547,-1.48014036112575,-1.47986411586314,-1.43842732647164,-1.28138189467782,-1.2641165657647,-1.21397805060097,-1.09408760662821,-0.986490076841601,-0.890771093347218,-0.799886401948514,-0.723504586836836,-0.660382544330438,-0.583862606587456,-0.555685589801232,-0.452507984216379,-0.416457977445769,-0.336484973920161,-0.271705459838104,-0.25568323460672,-0.247533999359725,-0.225986868876142,-0.204854106286471,-0.24352844305188,-0.249605838829298,-0.204025370498641,-0.211760237851722,-0.152091261127952,-0.151676893234038,-0.148776317976632,-0.0928366522980979,-0.0668695976127519,0.0266394237807487,0.105507446255914,0.182165506630205,0.263519736468862,0.327608637394394,0.418631451424404,0.482444107087326,0.495289511798691,0.529267679099727,0.24473505861138,-0.375159310685567,-1.11656972107752,-1.76119866619587,-2.41743741221522,-3.07367615823457,-3.63917646034719,-2.99479313601664,-2.83084157265758,-3.00073240916276,-2.92890864088414,-2.66122698141501,-2.34575489151433,-2.08042131677739,-1.79947988470297,-1.4979581805641,-1.18911597696607,-1.03842418621229,-0.844085643966122,-0.693808221106255,-0.61203962337368,-0.558586165058637,-0.519359337768012,-0.470740171548641,-0.440076947398928,-0.448916795802448,-0.403198204840486,-0.441043805818063,-0.406789393254416,-0.386761611715187,-0.421292269541443,-0.390767168023033,-0.673918562198331,-1.36536620962091,6,"prev_rew",3209.94264171931,144.79886323504,"risk",TRUE,"autists","not_trained"
"24","P307",1287502,"RESPONSE LOSE VAL1_15",1,"1_15",1110,1286218,TRUE,FALSE,FALSE,FALSE,FALSE,FALSE,FALSE,TRUE,FALSE,"risk",FALSE,-1,0,FALSE,3166.31752391543,190.727263551456,-0.0149304405711528,-0.0134161392977094,-1.88193909559207,-1.75818121794277,-1.5363562720669,-1.34284646560856,-1.01839640467306,-0.622675065984167,-0.382341687513428,-0.214108322583908,-0.145047006931396,-0.0480849197552701,0.00315857645889408,-0.0143829977168436,0.0292637537755418,0.0271919143059683,0.0806453726210109,0.0957007394332604,0.104126219942865,0.141419330395222,0.121253426224689,0.15067354669266,0.203850759745093,0.217663022875595,0.228298465486082,0.167662630343175,0.0528827237287013,0.0288493858816271,-0.0219797424386193,-0.0522285986944202,-0.338556813389734,-0.402783836946571,-0.468530209447762,-0.539110874044628,-0.630824301231165,-0.690493277954934,-0.71673657790289,-0.801267628261563,-0.802234486680697,-0.768946932536189,-0.753753443092634,-0.709968568968944,-0.619498245464154,-0.481237491527822,-0.394496479068268,-0.303888032932173,-0.249605838829298,-0.199743568928186,-0.127781678018268,-0.105820179640771,-0.0788862665362906,-0.0978090670250773,-0.253028877952924,-0.41317105917613,-0.573313240399406,-0.223002218973618,0.425261337727045,0.293492347462053,0.296392922719459,0.360481823644988,0.401642367773886,0.446532222948018,0.529820169624947,0.564350827451203,0.592527844237427,0.595014051600918,0.604682635792271,0.581478033733026,0.555510979047683,0.497085106005658,0.134098830936057,-0.346706048636733,-0.716456930605009,-0.931523393245675,-1.04379055662169,-1.15605771999764,-1.26832488337366,-1.03137993201573,-0.869500208126245,-0.757482754137869,-0.596017398142299,-0.481789982053045,-0.369910650695974,-0.206787823124742,-0.10278148175206,-0.0319245718925814,0.0313355932451184,0.117524115179453,0.214348079724274,0.249293105444445,0.228298465486082,0.233823370738284,0.160894621409229,0.219596739713864,0.230922795480878,0.232856512319147,0.229679691799131,0.213243098673835,0.207718193421633,0.183546732943254,-0.0726707481275639,-0.209826521013453,-0.218994410666323,15,"prev_lose",3209.94264171931,144.79886323504,"risk",TRUE,"autists","trained"
"25","P307",1339209,"RESPONSE LOSE VAL1_25",1,"1_25",2572,1336463,TRUE,FALSE,TRUE,FALSE,FALSE,FALSE,FALSE,TRUE,FALSE,"risk",FALSE,-1,0,FALSE,3166.31752391543,190.727263551456,0.241996008823149,0.237219828885139,-0.919791385145635,-0.999757119059065,-1.07972285297249,-0.850385489876095,-0.953202522697089,-0.927373590643051,-0.963423597413661,-0.934970335364826,-0.844500011860037,-0.687316457434918,-0.575575248709156,-0.498088452547036,-0.417286713233598,-0.348087274949782,-0.358308349666353,-0.471983275230388,-0.483033085734789,-0.486209906254805,-0.4860717836235,-0.506099565162729,-0.43192771215193,-0.358722717560268,-0.132063479588723,-0.10278148175206,-0.0618971828857725,-0.032615185049109,0.0169708395893964,0.0264571019074247,-0.108513570951218,-0.253542333821493,-0.398571096691767,-0.0743530817768608,0.0277444048311879,0.139347490925646,0.27222146224108,0.381200218340742,0.612279380514046,0.698882270342296,0.801231140139319,0.825402600617699,0.872364295261408,0.974713165058428,1.02084612391431,0.976785004528005,0.964630212973161,1.00813884183424,0.98907791871415,0.967668910861872,0.955375996675727,0.982586155042814,0.995984050279401,1.04971375385706,1.04294574492311,1.0452938296553,1.09557046745032,1.2049635914439,1.24377605084061,1.27291992604598,1.34419120379937,1.36021342903075,1.36877703217166,1.47817015616524,1.51905445503153,1.55192764128212,1.62651386218683,1.64225984215561,1.63825428584776,1.60565734485978,1.30455000861483,0.878994181564046,0.336172240535304,-0.0717433533173439,-0.383530687860346,-0.754297658990186,-1.12506463012003,-1.42460042361522,-0.638421045952941,-0.177643947919384,-0.0205985161255703,0.0177995753772258,0.0269156690433585,0.203022023957263,0.336724731060524,0.499295068106536,0.580649297945196,0.683136290373525,0.799711791194962,0.821397044309853,0.822778270622902,0.931204536197348,1.05786298910405,0.962282128240978,0.956480977726166,0.952199176155711,0.811590337487196,0.712970778735408,0.74957327603124,0.808551639598485,0.81255719590633,0.83203248692034,0.476591160585774,25,"prev_rew",3209.94264171931,144.79886323504,"risk",TRUE,"autists","trained"
"26","P307",1391001,"RESPONSE LOSE VAL1_38",1,"1_38",2469,1388358,TRUE,FALSE,FALSE,TRUE,FALSE,FALSE,FALSE,TRUE,FALSE,"risk",FALSE,-1,0,FALSE,3166.31752391543,190.727263551456,0.472192746345282,0.466481270088266,-0.359689575979402,-0.340628652859311,-0.279440327191185,-0.259029273428955,-0.339595264167529,-0.480610516023448,-0.621625767879365,-0.714857097699938,-0.112588188574717,-0.187036286848123,-0.361485170186369,-0.338418690758429,-0.207064068387352,-0.0949084917676745,-0.0489136555430995,0.00532229485944182,0.0218598939618107,-0.00704241875618917,-0.0359447314742582,-0.064847044192258,0.0951835401530512,0.0473578184765022,0.0715292789548813,0.127054576739501,0.165176422979687,0.196254015023317,0.318354421096957,0.369321672048511,0.414211527222644,0.41655961195483,0.39017818937557,0.320840628460448,0.291144262729867,0.354956918392789,0.347083928408401,0.341973391050116,0.257994831216663,0.235757087576553,0.253713029646205,0.293077979568139,0.37070289836156,0.430371875085333,0.451642760306306,0.511311737030075,0.566975157445999,0.607030720524457,0.619461757341907,0.550676686952005,0.540731857498043,0.525814613317102,0.481201003405579,0.520289708064903,0.566698912183389,0.574571902167775,0.335067259484865,0.348050786827538,0.416973979848745,0.438244865069718,0.449432798205424,0.53064890541278,0.561450252193797,0.642113868875933,0.652058698329895,0.658550462001231,0.746672700773835,0.786866386483598,0.802059875927149,0.640732642562881,0.232718389687842,-0.338271042428448,-1.1131977458583,-1.90303693061983,-2.58870783713053,-2.61540675304512,-2.61865654401182,-2.59911088863851,-2.57956523326512,-2.26079383673747,-1.20942000376791,-1.02143510256177,-0.770328158849237,-0.544497656665525,-0.229163689396155,-0.0355157603065119,0.18644730820066,0.328989863707443,0.451090269781086,0.505924954409178,0.549709828532871,0.552057913265058,0.482996597612546,0.445012874003664,0.282718782220262,0.263657859100167,0.170286960337971,0.0621369400261389,0.0285731406190173,-0.0519523534318104,-0.28289339297381,-0.39201027170478,-0.695995162768587,38,"prev_lose",3209.94264171931,144.79886323504,"risk",TRUE,"autists","trained"
"27","P307",1394369,"RESPONSE LOSE VAL1_39",1,"1_39",689,1393505,TRUE,FALSE,FALSE,FALSE,TRUE,FALSE,FALSE,TRUE,FALSE,"risk",FALSE,-1,0,FALSE,3166.31752391543,190.727263551456,0.432568529690165,0.428259278118022,0.515455415969225,0.0468005651019413,-0.607700667610953,-1.39753985237248,-2.18737903713394,-2.63947091461539,-2.63116576345079,-2.61162010807747,-2.59207445270409,-2.5725287973307,-1.84080200624965,-1.10044124766824,-0.944086429030959,-0.678476609031399,-0.431789589520625,-0.154853713754054,0.053297091622616,0.251779312807936,0.368907304154597,0.464350042386366,0.532720744882353,0.57471002479908,0.50343874704569,0.490593342334321,0.383548303072928,0.270978358559333,0.232304021793927,0.126640208845586,0.0423854037495196,0.0126890380189415,-0.118389339089526,-0.347949152318477,-0.421706637435358,-0.534414704580258,-0.653614535396492,-0.732068189977746,-0.858450397621844,-0.942014589561383,-1.04726403461581,-1.10803799239002,-1.17433685541643,-1.1183971897379,-1.05624200565064,-1.0551370246002,-0.979169577382435,-0.953616890591003,-0.917290638557784,-0.848643690799187,-0.771855057905283,-0.789767475801686,-0.823076792032855,-0.856386108263959,-0.889695424495059,-0.92300474072616,-0.623044133208014,0.135341934617801,0.134098830936057,0.246806898080954,0.314348864789112,0.430924365610552,0.502471888626552,0.60164393790356,0.642528236769847,0.719462542406745,0.753026341813866,0.733689173431162,0.698882270342296,0.5697376100721,0.36296803100848,-0.0183885540246888,-0.441181928449367,-0.764527008334429,-0.964114210570185,-1.0113521504765,-1.02392130992526,-0.972125323185879,-1.91475703279014,-4.71303866945113,-7.54455261120412,-10.1603742519112,-9.52523114411815,-6.90573544141838,-4.14328281531791,-1.39395183919142,0.0571645252991563,0.0944576357515132,0.210204400785124,0.262552878049728,0.316835072152603,0.356476267337143,0.338105957373576,0.281475678538515,0.248326247025311,0.15868465930835,0.0306449800885939,-0.0881404828337282,-0.221152576780464,-0.380822338569071,-0.635520470695535,-0.860798482354027,-1.91300517741642,39,"prev_lose",3209.94264171931,144.79886323504,"risk",TRUE,"autists","trained"
"28","P307",1567360,"RESPONSE REW INV4_6",4,"4_6",1462,1565727,TRUE,TRUE,FALSE,TRUE,FALSE,FALSE,FALSE,TRUE,FALSE,"risk",FALSE,-1,0,FALSE,3166.31752391543,190.727263551456,0.193653087866391,0.272504222722173,-0.156373062698407,-0.042421891871763,0.0298162443007645,0.140728717238698,0.20979003289121,0.321393118985668,0.364211134690224,0.375537190457238,0.356476267337143,0.294873573775102,0.273464565922824,0.2095137876286,0.158546536677046,0.066142496333984,-0.0766763044354091,-0.221014454149159,-0.389800309603898,-0.632896140700738,-0.906793318578602,-1.02254008361221,-1.06950177825592,-1.15679528124069,-1.24919932158375,-1.3164650430293,-1.39726678234274,-1.31384071303451,-1.39795739549927,-1.48566526637795,-1.45417330644041,-1.41715644125066,-1.33276351352329,-1.16563512964422,-1.05265081723671,-0.963837965307575,-0.879721282842817,-0.778063026202318,-0.737086645581852,-0.869776453388855,-1.02324604372775,-0.98159439690978,-0.904168988583806,-0.920329336446495,-0.875853849166277,-0.77557681883883,-0.750852867835231,-0.63510610280162,-0.46328154945817,-0.42391659953624,-0.344081718641936,-0.258445687232821,-0.272672318257238,-0.292561977165162,-0.240765990425779,-0.00664813036376309,-0.0161785919238105,0.00453980277194306,0.10840802151332,0.157717800889216,0.243077587035718,0.365730483634581,0.50316250178308,0.580649297945196,0.658688584632536,0.710070203478005,0.724020589239812,0.727473655022438,0.708550854533648,0.625815398381939,0.33575787264139,-0.167560995834117,-0.831987726435949,-1.15820900699638,-1.48320343359643,-1.7216030952289,-1.69989346753204,-1.6684015075945,-1.60610820087593,-1.45707388169781,-1.28524932835436,-1.15624279071547,-0.965219191620627,-0.758449612557007,-0.518944969874094,-0.409413723249213,-0.303473665038259,-0.254302008293671,-0.191041843155968,-0.156511185329712,-0.171428429510657,-0.164936665839321,-0.118251216458221,-0.0939416333485371,-0.0939416333485371,-0.0346870245186825,0.0497059032086855,0.0237388485233427,-0.0422837692404581,-0.253887640399756,-0.473640746806047,-0.567149768199547,-0.471390498937699,6,"prev_lose",3209.94264171931,144.79886323504,"risk",TRUE,"autists","trained"
"29","P307",1571102,"RESPONSE LOSE VAL4_7",4,"4_7",1172,1569760,TRUE,FALSE,TRUE,TRUE,TRUE,FALSE,FALSE,TRUE,FALSE,"risk",FALSE,-1,0,FALSE,3166.31752391543,190.727263551456,-0.306112220287411,-0.226819040550336,-1.67862258231107,-1.60983751192117,-1.50665990633632,-1.29629913885877,-1.18469605276431,-0.991048123674665,-0.824886598214722,-0.519773705661927,-0.428474646369304,-0.316319069749627,-0.268804884580698,-0.198500465246442,-0.161759845319305,-0.163279194263659,-0.164798543208016,-0.129853517487845,-0.0903504449346066,-0.103472094908584,-0.042421891871763,0.031888083770338,0.0440428753251815,-0.0313720813673618,-0.206097209968218,-0.451817371059854,-0.549470071392505,-0.670741741678315,-0.791046553544991,-0.866185264974925,-0.928805160718939,-1.01449863565229,-1.1000184891472,-1.18553834264211,-1.06222516823102,-1.12765140603533,-1.12930887761099,-1.07806538139683,-0.974059040024147,-0.836903267138258,-0.679857835344448,-0.610796519691936,-0.40002138432047,-0.346015435480205,-0.311899145547864,-0.422949741117105,-0.376678659629921,-0.545001055412113,-0.784219468063903,-1.02343788071569,-1.00585163424906,-0.849567527415106,-0.877871345305494,-0.906175163195885,-0.641568430502364,-0.36839130175162,-0.316319069749627,-0.21576579415957,-0.176953334762856,-0.098499680181605,0.00509229329716265,0.0564739121426318,0.0961151073271751,0.0854796647166886,0.090590202074973,0.0742917315809793,0.0495677805773806,0.00288233119628429,-0.0377257224073934,-0.17350026898023,-0.45112675790333,-0.851406143425288,-1.26895085786037,-1.53221259312775,-1.66439595128665,-1.68110878967456,-1.6539331619653,-1.69827982332981,-1.73480263449218,-1.77132544565456,-1.8019010150575,-0.97875520948852,-0.647260894356464,-0.360242066504622,-0.202920389448202,-0.218528246785668,-0.115903131726038,0.0502583937339051,0.157165310363993,0.301365337446439,0.34376898525708,0.394183745683415,0.419183941949623,0.418217083530489,0.340592164737067,0.217110532350376,0.170563205600581,0.0368604984973206,-0.170875938985437,-0.548917580867285,-0.929445430112624,-1.21383992796967,-0.763727048094787,7,"prev_rew",3209.94264171931,144.79886323504,"risk",TRUE,"autists","trained"
"30","P307",1576438,"RESPONSE LOSE VAL4_8",4,"4_8",2760,1573508,TRUE,FALSE,FALSE,FALSE,TRUE,FALSE,FALSE,TRUE,FALSE,"risk",FALSE,-1,0,FALSE,3166.31752391543,190.727263551456,0.00523729911606956,0.10305393458778,-1.99616651168132,-2.28898649004797,-2.63429306831053,-2.97959964657309,-2.90542779356229,-1.96481267437508,-1.48856584163536,-1.3440895692903,-1.34892386138598,-1.41342713020543,-1.29602289359616,-1.16660198806335,-1.07792725876552,-1.01328586731478,-0.892566687554185,-0.954721871641446,-0.907760176997736,-0.810936212452915,-0.773643102000558,-0.770880649374457,-0.808588127720729,-0.883721053909526,-1.12781628540674,-1.48758596642377,-1.84735564744074,-1.83322664235995,-1.02613127202614,-0.961766125838002,-0.86991457602016,-0.810107476665086,-0.534690949842868,-0.413557402188363,-0.417148590602293,-0.389385941709984,-0.346982293899342,-0.413143034294448,-0.400988242739605,-0.395739582750015,-0.357203368615914,-0.383308545932562,-0.387590347503017,-0.342976737591494,-0.349192256000221,-0.332617540243617,-0.356236510196777,-0.378750499099497,-0.34228612443497,-0.365766971756824,-0.266042431954597,-0.223086293618736,-0.182478240015058,-0.174190882136758,-0.139383979047889,-0.105129566484246,-0.203334757342117,-0.177643947919384,-0.155129959016663,-0.120323055927798,-0.108582632266872,-0.0486374102804897,0.0158658585389541,0.0400373190173332,0.0929382868071593,0.0789879010453521,0.0923857962819398,0.0709767884296586,0.0410041774364706,-0.114245660150376,-0.563006089260397,-1.31757002407974,-1.86978430403723,-2.23188962622667,-2.62995568080307,-3.03000598488772,-3.41148721717355,-3.3605451839679,-3.81117425290723,-4.24778785907573,-4.68440146524429,-4.90111255350625,-4.07657840073572,-1.94463795386641,-1.07599354192726,-0.881102509155866,-0.722537728417699,-0.569912220825649,-0.448226182645924,-0.25982691354587,-0.176262721606332,-0.110930716999055,-0.102643359120755,-0.136621526421791,-0.138417120628755,-0.143803903249652,-0.257755074076297,-0.347672907055867,-0.485933660992195,-0.794913987221531,-0.884693697569797,-0.926544854855218,-1.82162842414369,8,"prev_lose",3209.94264171931,144.79886323504,"risk",TRUE,"autists","trained"
"31","P307",1643827,"RESPONSE REW INV4_27",4,"4_27",1428,1642229,TRUE,TRUE,TRUE,FALSE,FALSE,FALSE,FALSE,TRUE,FALSE,"risk",FALSE,-1,0,FALSE,3166.31752391543,190.727263551456,0.777003237522531,0.867543157702014,-0.243318446653144,0.440869195064514,0.506063077040483,0.6521968209612,0.786313895958378,0.810209111174147,0.940458752494782,0.950679827211354,0.955099751413114,0.896673878371092,0.876507974200558,0.854822721085667,0.826093213774223,0.831341873763815,0.867944371059645,0.943773695646103,0.964077722447942,0.97692312715931,1.02139861443953,0.878441691038826,0.861452607388308,0.858276435331326,0.664973488588463,0.379649743169638,0.0943259977508124,-0.175479378232524,0.541284348023266,0.873193031049237,0.778855273867904,0.865734408958766,0.916839782541623,0.963248986660112,1.04805628228139,1.05523865910926,1.02416106706563,0.911867367814643,0.900541312047632,0.97692312715931,0.909243037819847,0.833137467970779,0.765319256000015,0.713799514523241,0.702473458756226,0.674710809863917,0.645014444133339,0.643080727295067,0.649710613597708,0.640042029406356,0.634240878891547,0.71490449557368,0.758551247066068,0.77705967966094,0.830651260607288,0.860485748969174,0.864905673170934,0.889905869437146,0.900679434678937,0.976232514002785,1.08341567589548,1.09819479744512,1.12844365370092,1.15744940627497,1.16338867942109,1.19695247882821,1.20302987460563,1.22043332615006,1.30054445230698,1.23535057033101,0.992669107128081,0.563383969032069,0.151778527743099,-0.182063872121144,-0.349468501262831,-0.405131921678755,-0.441320051080672,-0.35624856453554,-0.241280811142492,-0.127015725244662,-0.0127506393469018,0.101514446550928,0.241746084869939,0.574019411642555,0.578163090581705,0.724849325027642,0.86725375790312,0.984934239775,1.0260947839039,1.01200627551079,1.05385743279621,1.16739423572894,1.19004634726296,1.15800189680019,1.14653771840188,1.13949346420532,1.08631625115289,1.02402294443432,0.842529806899522,0.632859652578495,0.589074778454802,0.493493917591727,0.47576817990758,27,"prev_rew",3209.94264171931,144.79886323504,"risk",TRUE,"autists","trained"
"32","P307",1686667,"RESPONSE LOSE VAL4_38",4,"4_38",2402,1684094,TRUE,FALSE,TRUE,FALSE,TRUE,FALSE,FALSE,TRUE,FALSE,"risk",FALSE,-1,0,FALSE,3166.31752391543,190.727263551456,0.253077940869711,0.284720257330459,0.598881485277459,0.647224406234217,0.786728263852293,0.828579421137714,0.800540526982795,0.847778466889111,0.909381160451152,0.962558373503588,1.02305608601519,1.0673934506641,1.08452065694592,1.10247659901557,0.993221597653303,1.00523826657684,1.02913348179261,1.06601222435105,1.01670244497515,0.927475225152109,0.901093802572852,0.918658397187117,0.847356425515688,0.713070533969097,0.578784642422579,0.44449875087606,0.748660131968738,0.712142042947579,0.746672700773835,0.780236500180956,0.896950123633702,0.967668910861872,0.956757222988776,0.909795528345066,0.931618904091262,0.915734801491183,0.820982676415939,0.791286310685357,0.659793565682975,0.566560789552084,0.472223032370754,0.395426849365159,0.307580855855165,0.264348472256692,0.208685051840767,0.218629881294729,0.270702113296723,0.54722362116938,0.631064058371531,0.523742773847528,0.489626483915187,-0.601956671288413,0.219596739713864,0.869325597372697,0.902198783623291,1.06242103593712,0.991702248708946,1.33106955382539,1.34653928853155,1.3919816342309,1.43383279151633,1.51615387977412,1.58093339385618,1.64405543636257,1.73645947670563,1.7519292114118,1.75303419246224,1.78286868082412,1.74557557037176,1.64502229478171,1.22222892035703,0.504267482833519,-0.082615577581526,-0.594099440261929,-1.22229043741244,-1.85033126096383,-2.01969662287604,-1.92183551737794,-1.77020088953221,-1.61856626168648,-1.46693163384075,-0.920226044739598,-0.107753896479039,0.142248066183052,0.158408414045741,0.347222051039706,0.467526862906382,0.611312522094912,0.669600272505632,0.776507189135721,0.802336121189759,0.76877232178264,0.755374426546052,0.68741809194398,0.621947964705399,0.595842787388748,0.428161912984451,0.372225037662075,0.311573157971112,0.20867877353934,0.105784389107564,0.154626086232911,0.101654400353468,38,"prev_rew",3209.94264171931,144.79886323504,"risk",TRUE,"autists","trained"
"33","P307",1824948,"RESPONSE LOSE VAL3_5",3,"3_5",966,1823815,TRUE,FALSE,FALSE,FALSE,FALSE,TRUE,FALSE,FALSE,FALSE,"learning",FALSE,-1,0,FALSE,3166.31752391543,190.727263551456,-0.277340496091982,-0.258431468726652,-1.72406492801042,-1.53953309258691,-1.28152001730913,-1.05334143039323,-0.829997135573007,-0.59546490761708,-0.354993406515033,-0.244357178839709,-0.198500465246442,-0.187312532110733,-0.250020206723216,-0.30651236292697,-0.252920781980619,-0.230821160971816,-0.275572893514644,-0.322120220264436,-0.28676082665035,-0.252782659349314,-0.274053544570287,-0.298225005048666,-0.217699510997839,-0.170047203197605,-0.13054413064437,-0.182063872121144,-0.226815604663971,-0.339109303914954,-0.583033870799626,-0.862870321823604,-1.05748510933238,-1.13914610877204,-1.18480670349106,-1.30499628598019,-1.42518586846939,-1.34711147879287,-0.975302143705894,-1.00762283943127,-0.891461706503743,-0.788974714075418,-0.653476412765187,-0.501265273067051,-0.363695132287248,-0.232478632547475,-0.0915935486163538,-0.0333057982056335,0.0715292789548813,0.0957007394332604,0.121944039381213,0.123049020431655,0.166281404030126,0.168076998237093,0.180508035054543,0.210756891310344,0.160618376146619,0.155784084050944,0.2260885033852,0.227055361804338,0.313658251632587,0.369321672048511,0.418078960899184,0.500400049156979,0.566008299026865,0.644185708345506,0.696534185610113,0.71435200504846,0.738937833420754,0.741009672890327,0.748606417612106,0.646257547815083,0.395012481471244,0.0551292010079608,-0.425124775656075,-0.905378752320041,-1.23093379430598,-1.04063414831317,-1.22350851216102,-1.13952995232757,-1.12074527447008,-0.967981644246725,-0.847262464486135,-0.711211672650688,-0.512867574096675,-0.307617343977409,-0.176538966868941,-0.0718420123397345,0.0325786969268625,0.0835459478784169,0.0136558964380757,0.0227719901042053,0.0226338674729004,-0.0442174860787298,-0.0867592565206761,-0.162588581107134,-0.166594137414979,-0.161759845319305,-0.154439345860139,-0.0661789844562275,-0.0449080992352543,-0.0309577134734471,0.0465290826886697,0.136861283562158,-0.197297647332161,5,"prev_lose",3209.94264171931,144.79886323504,"risk",TRUE,"autists","not_trained"
"34","P307",1885857,"RESPONSE REW INV3_19",3,"3_19",1333,1884356,TRUE,TRUE,TRUE,TRUE,FALSE,FALSE,FALSE,TRUE,FALSE,"risk",FALSE,-1,0,FALSE,3166.31752391543,190.727263551456,1.22062467876556,1.09744601390395,0.836590533753405,0.908966792557237,1.03755896230221,1.13244921000877,1.18479768727337,1.24377605084061,1.19860995040387,1.27333429393989,1.22582010877096,1.19860995040387,1.12816740843831,1.10399594795993,1.10924460794952,1.1389409736801,1.2378367776945,1.29377644337303,1.30178755598872,1.36339024955077,1.33548947802715,1.3120086307053,1.29239521705998,1.21628964721091,1.17084730151156,1.05952046067971,0.989304473517947,0.888486743621588,0.747416373233854,0.632686999289363,0.947226761428728,0.894878284164125,0.92609399883906,0.902613151517206,0.905513726774612,0.794601253836678,0.81310968643155,0.737832852370315,0.664489735147345,0.586588571091313,0.652058698329895,0.682307554585692,0.62029049312974,0.56559393113295,0.538245650134555,0.560759639037272,0.583135505308688,0.62857785100804,0.649434368335098,0.652887434117724,0.649158123072489,0.673329583550868,0.796258725412337,0.905513726774612,0.966702052442738,1.08217257221374,1.10648215532342,1.20979788353958,1.30689809334701,1.39004791739263,1.48507628773049,1.49847418296708,1.44350137570768,1.4990266734923,1.58452458227011,1.66021578422526,1.69889012099067,1.73797882564999,1.78701235976327,1.69543705520804,1.34584867537503,0.704821543488413,0.0108934438119746,-0.498917188334868,-0.894500404392454,-1.16150481741131,-1.31373674976364,-1.46596868211596,-1.56304958445876,-1.27419951784996,-1.19077344854173,-0.994501189457291,-0.81521801402337,-0.559691146109077,-0.415905486920549,-0.19767172945861,-0.0232228461203665,0.203436391851178,0.273188320660214,0.298050394295118,0.357857493650195,0.372636615199832,0.395703094627769,0.375813435719848,0.39017818937557,0.321807486879582,0.259376057529712,0.294597328512492,0.328023005288309,0.303989667441235,0.334376646328341,0.421393904050505,0.117604686714382,19,"prev_rew",3209.94264171931,144.79886323504,"risk",TRUE,"autists","trained"
"35","P307",1890243,"RESPONSE LOSE VAL3_20",3,"3_20",1471,1888604,TRUE,FALSE,TRUE,FALSE,TRUE,FALSE,FALSE,TRUE,FALSE,"risk",FALSE,-1,0,FALSE,3166.31752391543,190.727263551456,0.353159488669134,0.292608665080014,0.351089484716249,0.374017841512881,0.369321672048511,0.396255585152991,0.388244472537298,0.33962530631793,0.278022612755889,0.267387170145402,0.341697145787507,0.295149819037712,0.334100401065731,0.39459811357733,0.437001761387971,0.475123607628157,0.527472084892764,0.504819973358739,0.48865962549605,0.431338733504467,0.38990194411296,0.315177600576941,0.24998371860097,0.234513983894808,0.179541176635409,0.103988097311561,0.129402661471684,0.232994634950451,0.231475286006098,0.333409787909203,0.350106051581356,0.292663611674224,0.221629115574526,0.222967721189857,0.433134327711431,0.376227803613762,0.412415933015677,0.471256173951617,0.496118247586524,0.535345074877149,0.572223817435591,0.584516731621737,0.607859456312287,0.634102756260242,0.65634049990035,0.647500651496827,0.668080923561275,0.637832067305478,0.663061045845178,0.627947499848986,0.491958036595002,0.355968573341019,0.219979110087035,0.101769069246482,0.581339911101721,0.679268856696985,0.509792388085721,0.505648709146568,0.542389329073705,0.603715777373136,0.68686560141876,0.818358346421142,0.882032879452757,1.01034880393512,1.03092907599957,1.0867306190468,1.13258733264007,1.1307917384331,1.09681357113207,1.04142639597875,0.989768531870678,-0.0533335797448625,-0.475712586275623,0.401089877248666,0.338520325267491,0.215867428668628,0.192939071871996,0.257718585954053,0.278298858018499,0.422913252994859,0.521947179640562,0.574019411642555,0.63714145414895,0.718910051881525,0.806118455614796,0.817201651210157,0.828657319683311,0.840112988156461,1.022078753842,1.10606778742951,1.108553994793,1.11891319214087,1.15496319891148,1.13797411526097,1.19612374304038,1.13410668158442,1.13797411526097,1.16697986783502,1.20523983670651,1.34722990168808,1.43659524414243,1.37568316373691,0.627294516109632,20,"prev_rew",3209.94264171931,144.79886323504,"risk",TRUE,"autists","trained"
"36","P307",1903628,"RESPONSE LOSE VAL3_23",3,"3_23",1262,1902198,TRUE,FALSE,TRUE,TRUE,FALSE,FALSE,FALSE,TRUE,FALSE,"risk",FALSE,-1,0,FALSE,3166.31752391543,190.727263551456,1.12678388772942,1.11354364269746,0.905099358880697,1.06490724330061,1.07208962012847,1.11932756003479,1.13714537947314,1.20827853459522,1.13576415316009,1.14874768050276,1.15993561363847,1.10095725007122,1.0647691206693,1.07374709170413,1.08534939273375,1.08990743956682,1.04667505596835,1.04101202808484,1.10150974059644,1.21836148668049,1.15427258575496,1.0509568575388,0.943635573014798,0.879546672089269,0.707445873483209,0.658550462001231,0.610898154200997,0.534654461720625,0.593557485670788,0.543155281847311,0.386197746273441,0.229240210699499,0.64805314202205,0.72291560818937,0.872502417892713,0.956204732463556,1.03258654757523,1.06242103593712,1.10565341953559,1.11656510740869,1.11518388109564,1.11587449425216,1.1169794753026,1.12347123897394,1.12070878634784,1.14336089788186,1.08617812852158,0.896259510477174,-0.143251412724433,0.885347822604078,0.963110864028807,1.06214479067451,1.10744901374256,1.17153791466809,1.19750496935343,1.23314060823013,1.24543352241628,1.259798276072,1.28300287813124,1.31546169648792,1.31559981911923,1.35772722166726,1.45496555410599,1.42071114154235,1.38037933320128,1.37140136216646,1.39046228528655,1.34999235431418,1.3451580622185,1.18769826253078,1.05192371595794,0.391857760572238,-0.971710955291964,-2.35688362923664,-3.62098431875673,-4.56663594987999,-2.76867911895814,-0.871710170227127,-0.218804492048278,0.0262250558868309,0.162966460878805,0.39763681146604,0.596257155282666,0.68355065826744,0.924574649894706,1.04736566912487,1.1196038052974,1.16380304731501,1.18079213096552,1.18383082885424,1.13120610632702,1.09336050534945,1.00095646500638,0.929132696727771,0.883690351028419,0.874988625256201,0.872502417892713,0.943359327752188,1.00772447394033,1.03189593441871,1.04474133913007,1.07913387432503,0.0336549024291135,23,"prev_rew",3209.94264171931,144.79886323504,"risk",TRUE,"autists","trained"
"37","P307",1907012,"RESPONSE LOSE VAL3_24",3,"3_24",481,1906363,TRUE,FALSE,FALSE,TRUE,TRUE,FALSE,FALSE,TRUE,FALSE,"risk",FALSE,-1,0,FALSE,3166.31752391543,190.727263551456,0.954864805276179,1.04391775717179,1.10841587216169,0.71784453444,-0.528455699629651,-1.91362837357432,-3.298801047519,-4.33596388598842,-3.60764325111703,-1.31991810881193,-0.355407774408947,-0.0266759119029921,0.106750549937662,0.320426260566533,0.533273235407573,0.68355065826744,0.81338593169416,1.04308386755442,1.06518348856322,1.19156569620732,1.15689691574975,1.18203523464727,1.15717316101236,1.11159269268171,1.02471355759085,0.953166034574845,0.898193227315446,0.865458163696157,0.877612955250997,0.912005490445948,0.993774088178523,1.02719976495434,1.02830474600478,1.06960341276498,1.12678618212526,1.17057105624895,1.2075879214387,1.16476990573414,1.13963158683663,1.06545973382583,1.00537638920814,0.938663158287818,0.895568897320649,0.877751077882302,0.813662176956773,0.782860830175752,0.732577048106679,0.410894202646618,0.0755102272077302,-0.138728293453274,0.592251598974817,0.494322653379557,0.578853703738233,0.627472869957601,0.693495487721402,0.746120210248615,0.747777681824274,0.708965222427563,0.787280754377512,0.81697712010809,0.881756634190147,0.992530984496776,0.956895345620081,0.993912210809828,0.990735390289812,1.05592927226578,1.12429997476177,1.15579193469932,1.27278180341467,1.30786495176615,1.12104186331814,0.701997942822388,0.282954022326702,-0.109158862619347,0.467250617643772,0.462554448179402,0.462001957654183,0.499847558631759,0.5339638485641,0.680788205641339,0.797501829094084,0.967807033493177,1.16380304731501,1.25123467293109,1.35510289167246,1.49971728664882,1.54364028340382,1.74074127827609,1.81587998970602,1.80179148131291,1.73466388249867,1.70759184676288,1.59750810961278,1.34805863747591,1.22471512772052,1.22582010877096,1.18990822463165,1.1830020930664,1.09791855218251,0.932723885141702,0.803579224871506,0.703716562437974,0.874859135289354,24,"prev_lose",3209.94264171931,144.79886323504,"risk",TRUE,"autists","trained"
"38","P307",1912125,"RESPONSE REW INV3_25",3,"3_25",2212,1909745,TRUE,TRUE,FALSE,FALSE,TRUE,FALSE,FALSE,TRUE,FALSE,"risk",FALSE,-1,0,FALSE,3166.31752391543,190.727263551456,1.41278033278209,1.54947764584442,0.825402600617699,0.692252384039655,0.583549873202603,0.51531729333792,0.395979339890382,0.307580855855165,0.271116481190638,0.203298269219873,0.168905734024922,0.164623932454467,0.175397497696259,0.254265520171428,0.282580659588957,0.429456812652936,0.460948772590481,0.417785450307661,0.374622128024841,0.569599487440795,0.523604651216223,0.530925150675389,0.644047585714201,0.668357168823885,0.69100928035791,0.767943585994808,0.778164660711379,0.752059483394732,0.797225583831474,0.784242056488801,0.817391488002008,0.84087233532386,0.858137664236988,0.907861811506798,0.899298208365885,0.923469668844264,0.874436134730981,0.872778663155322,0.864491305277019,0.974851287689733,0.965735194023604,0.993497842915913,1.01090129446035,0.999713361324637,1.07098463907803,1.13369231369051,1.08146245021096,0.970610064519404,0.84575344865051,0.7387318200046,1.03921643387788,0.895154529426735,0.905651849405916,0.968359524018397,0.957862204039215,0.975403778214953,0.995569682385487,0.998470257642893,1.14543273735144,1.17885841412725,1.26173199291027,1.29999196178176,1.35399791062202,1.26352758711723,1.36214714586902,1.39764466211441,1.38314178582738,1.38410864424652,1.28106916129297,1.21905209983702,0.962558373503588,0.355923776811924,-0.085516152838932,-0.51328194199059,-0.754264031246562,-0.862424139166319,-0.984639388776081,-1.10685463838584,-0.90485960174033,-0.919834708104669,-0.783216493567658,-0.638561035106288,-0.493905576644919,-0.294086925675644,-0.160102373743643,0.0426616490121294,0.256475482272306,0.423189498257468,0.49225081390998,0.732722315012027,0.823054515885512,0.845844750050842,0.839076741116896,0.918497254117284,0.889491501543228,0.798330564881913,0.837695514803844,0.83589992059688,0.837004901647319,0.877889200513607,0.897502614158921,0.934657601979973,0.146011907886114,25,"prev_lose",3209.94264171931,144.79886323504,"risk",TRUE,"autists","trained"
"39","P307",1933372,"RESPONSE LOSE VAL3_30",3,"3_30",1202,1932003,TRUE,FALSE,FALSE,FALSE,FALSE,FALSE,FALSE,TRUE,FALSE,"risk",FALSE,-1,0,FALSE,3166.31752391543,190.727263551456,1.13600735912216,1.16336860952941,0.567569432968939,0.759084005786795,1.08023885537547,1.20164864829258,1.23921800400755,1.27499176551555,1.28065479339906,1.15109576523494,1.19709060145952,1.1662892546785,1.12927238948875,1.07264211065369,0.991978493971556,0.93051392304082,0.847502221626501,0.74598208761731,0.736451626057263,0.693081119827487,0.60634010736793,0.568080138496438,0.60523512631749,0.621947964705399,0.50702993545962,0.493493917591727,0.409377235126966,0.3854820199112,0.385896387805115,0.376954887352734,0.153863558699937,-0.0692277699528625,-0.105514447524295,0.667114065142141,0.599433975802678,0.572361940066896,0.715733231361509,0.789766961741003,0.853993985297838,0.923193423581654,0.967945156124482,0.968912014543616,0.98051431557324,0.947503006691338,0.883275983134504,0.925955876207755,0.936591318818242,0.856824478629024,0.800367703591914,0.696605628350469,0.592843553108954,0.490587218670847,0.854822721085667,0.888110275230179,0.933690743560836,0.951094195105269,1.04142639597875,1.15441070838626,1.3367325817089,1.45289371463642,1.55192764128212,1.66767440631573,1.74405622142741,1.79681906658593,1.89433364428727,1.98687580726164,2.03508060558709,2.03604746400623,2.06878252762552,2.03328501138013,1.81905681022604,1.39336286054395,0.97609439137148,0.583411750571298,0.282718782220262,0.109236757301153,0.00081049172670768,0.0308121811686243,-0.0219579336020783,-0.0747491648652809,-0.127540396128483,-0.180331627391689,-0.233122858654892,-0.285914089918094,-0.3387053211813,0.323603081086549,0.885485945235382,0.881894756821452,1.00123271026899,1.07043214855281,1.07802889327459,1.14405151103839,1.13949346420532,1.1057915421669,1.05454804595273,1.01766930339429,0.966702052442738,0.848330957414334,0.784242056488801,0.75095450234429,0.698606025079686,0.595290296863528,0.827169419276477,30,"prev_lose",3209.94264171931,144.79886323504,"risk",TRUE,"autists","trained"
"40","P307",1951464,"RESPONSE LOSE VAL3_34",3,"3_34",3134,1948162,TRUE,FALSE,FALSE,FALSE,FALSE,FALSE,FALSE,TRUE,FALSE,"risk",FALSE,-1,0,FALSE,3166.31752391543,190.727263551456,0.963216406238797,0.978130742771293,1.03659210388308,0.568494506390356,0.524295264372748,0.463521306598536,0.335619750010085,0.2535749070149,0.249595248700424,0.329408547933587,0.448107684211342,0.566806820489096,0.604764646104609,0.537693159609336,0.643080727295067,0.668080923561275,0.72705928712852,0.74984952129385,0.764904888106097,0.713799514523241,0.73824722026423,0.716147599255424,0.725816183446776,0.745843964986005,0.751092624975594,0.734103541325076,0.525952735948407,0.481140665624502,0.503471460300503,0.479845220735165,0.456218981169824,0.51606097466334,0.74598208761731,0.772501632827876,0.870706823685746,0.971674467169717,1.07195149749716,1.16573676415327,1.14888580313406,1.18341646096032,1.23452183454318,1.26642816237464,1.36794829638383,1.39336286054395,1.37955059741345,1.36339024955077,1.42706478258238,1.4139431326084,1.3615946553438,1.35234043904636,1.35524101430377,1.38231305003955,1.44723068675291,1.53038051079854,1.61988397588419,1.80883573550947,1.90704092636734,1.94336717840056,1.99820186302865,2.1066281286031,2.13591012643976,2.15566166271638,2.18425304739652,2.2056620552488,2.26229233408386,2.25814865514471,2.25842490040732,2.23715401518634,2.24502700517073,2.21892182785408,1.95179265891016,1.40860123984268,0.570130396304872,-0.558590481390867,-1.68731135908661,-1.78991230268576,-0.89657224386203,-0.342148001803665,-0.179853910020262,-0.0378638450386983,0.213243098673835,0.493079549697813,0.643080727295067,0.657445480950789,0.847225976363891,0.987972937663711,1.06891279960845,1.10813962689908,1.09639920323815,1.13244921000877,1.14197967156881,1.16476990573414,1.15731128364367,1.04985187648836,0.991702248708946,0.89916008573458,0.845706627419537,0.826783826930747,0.799988036457575,0.776230943873111,0.8281650532438,0.894878284164125,0.839591823429469,34,"prev_lose",3209.94264171931,144.79886323504,"risk",TRUE,"autists","trained"
"41","P307",2223597,"RESPONSE LOSE VAL2_32",2,"2_32",1598,2221829,TRUE,FALSE,FALSE,FALSE,FALSE,FALSE,FALSE,TRUE,FALSE,"risk",FALSE,-1,0,FALSE,3166.31752391543,190.727263551456,1.01247708554311,1.14071303129518,0.973470061376684,1.03424401915089,1.06283540383103,0.968497646649702,0.97277944822016,1.03010034021174,1.06297352646234,1.10109537270253,1.09971414638947,1.10054288217731,1.08092946853199,1.03852582072135,0.972998359560358,0.658726372899568,0.26455565620365,-0.129615060492267,-0.523785777188254,-0.433314150639739,-0.474331359962571,-0.53662466668114,-0.513143819359285,-0.469911435760811,-0.371015631746417,-0.190489352630749,-0.0599634660475008,0.0338218006086097,0.0708386657983537,0.10896051203854,0.209375664997295,0.3305092126518,0.337415344217052,0.344873966307522,0.343354617363165,0.277331999599364,0.298050394295118,0.305923384279503,0.334514768959646,0.411725319859153,0.459653872921996,0.480786635511664,0.542941819598925,0.716700089780643,0.8089660074924,0.837557392172539,0.922917178319044,0.962282128240978,1.02540417074737,1.04998999911967,1.11186893794432,1.14888580313406,1.19764309198474,1.19860995040387,1.3120086307053,1.38148431425172,1.41159504787622,1.42665041468847,1.44750693201552,1.47057341144346,1.48908184403834,1.52333625660198,1.5952981475119,1.61283972168764,1.64115486110517,1.67830984892622,1.68701157469843,1.72582403409515,1.72900085461516,1.66297823685136,1.34405308116806,0.825402600617699,0.389103902243166,-0.214333411316387,-1.04562702565217,-1.87564684238818,-2.27533879856325,-2.70383193561383,-3.1336284213236,-3.56342490703337,-3.9865580240293,-3.67496618653957,-2.70984152428268,-1.74471686202586,-0.77959219976897,0.263928903092111,1.02167485970214,1.03051470810566,1.16684174520372,1.19902431829779,1.21573715668569,1.171952282562,1.10261472164688,1.020708001283,0.894049548376296,0.851093410040431,0.715871353992814,0.576643741637351,0.481201003405579,0.447499081367152,0.420841413525285,0.349984503665807,-0.481358348830214,32,"prev_lose",3209.94264171931,144.79886323504,"risk",TRUE,"autists","trained"
"42","P307",2232208,"RESPONSE REW INV2_34",2,"2_34",1279,2230759,TRUE,TRUE,TRUE,FALSE,FALSE,FALSE,FALSE,TRUE,FALSE,"risk",FALSE,-1,0,FALSE,3166.31752391543,190.727263551456,0.482976406928898,0.289843983656236,0.153194284713975,0.0408067663172027,-0.0715807520795729,0.161324625827421,0.223464173390407,0.250950577020107,0.279818206962856,0.540317489604129,0.55081480958331,0.60109144737834,0.671810234606511,0.678992611434375,0.741424040784245,0.884104718922334,0.959105307720962,0.956066609832251,0.935071969873888,0.967668910861872,0.91421545254683,0.779545887024432,0.613522484195794,0.3854820199112,0.262829123312338,0.191419722927639,0.138795000400426,0.0980488241654437,0.191726401990362,0.0670789209530087,0.117032337898753,-0.0153134281892939,-0.1291507616824,-0.238250944271107,0.479957899723835,0.609240682625335,0.735070399744214,0.850679042146517,0.888800888386703,0.978718721366273,0.986039220825439,1.06808406382062,1.1857645456925,1.24791972977976,1.2542733708198,1.22582010877096,1.19501876198994,1.20952163827697,1.1857645456925,1.17139979203678,1.12167564476697,1.16186933047673,1.25109655029978,1.30565498966526,1.31242299859921,1.31615230964445,1.36629082480817,1.39046228528655,1.43051784836501,1.43797647045548,1.45910923304514,1.53949660446467,1.5650492912561,1.56974546072047,1.65842019001829,1.74806177773525,1.78853170870763,1.86712348592019,1.8372889975583,1.74143189143261,1.44294888518246,0.947917374585253,0.493217672329118,0.184099223468474,-0.026814034534297,-0.166732260046284,-0.223817664272991,-0.336853300936949,-0.504789287086498,-0.672725273236045,-0.621592727988007,0.315177600576941,0.393355009895585,0.575400637955607,0.728578636072877,0.846397240576062,0.93023767777821,1.04971375385706,1.32734024278015,1.44046267781897,1.34985423168287,1.34377683590545,1.35648411798551,1.34211936432979,1.28479847233821,1.30234004651394,1.29432893389825,1.30206380125133,1.31366610228096,1.35289292957158,1.34377683590545,1.40966133103795,0.714559188995422,34,"prev_rew",3209.94264171931,144.79886323504,"risk",TRUE,"autists","trained"
"43","P307",2249449,"RESPONSE LOSE VAL2_38",2,"2_38",878,2248401,TRUE,FALSE,TRUE,FALSE,FALSE,FALSE,FALSE,TRUE,FALSE,"risk",FALSE,-1,0,FALSE,3166.31752391543,190.727263551456,0.23995399649989,0.191207336429549,-2.21897007109389,-1.71905489690726,-0.967567276352811,-0.844085643966122,-0.58013329554222,-0.39560146011871,-0.165903524258455,-0.0156261013985909,0.0890708531306191,0.258132953847968,0.351918220504078,0.384791406754672,0.40233298093041,0.411034706702628,0.339763428949235,0.316144458996075,0.161170866671842,0.0974963336402241,0.124154001482095,0.145977377228287,0.303811659130299,0.279337362936221,0.26087177051579,0.249008735321158,0.607306965787067,0.642804482032457,0.697362921397942,0.745153351829481,0.731064843436368,0.731064843436368,0.6521968209612,0.408410376707832,0.0608938363443948,-0.180406400545482,-0.490077339931345,-0.78358793145452,-1.11936404815703,-1.38000145342961,-1.65624671603966,-1.96481267437508,-2.22766004174854,-2.39727463299111,-2.55459631004753,-2.61398904150869,-2.55183385742143,-2.44989935551832,-2.3365006752169,-2.20514605284582,-1.96688451384466,-1.66577717759971,-1.48304093638316,-1.24878495368984,-1.10154622871868,-0.936213439046571,-0.688835806379275,-0.303335542406954,-0.162036090581915,-0.00126134774286579,0.125258982532534,0.246392530187039,0.380233359921608,0.541974961179791,0.716423844518034,0.900955679941547,0.988387305557626,1.05413367805882,1.16587488678458,1.12388560686785,0.851784023196959,0.682169431954388,0.500814417050893,0.147634848803949,-0.103472094908584,-0.27073860141897,-0.379164866993412,-0.446568711070262,-0.410518704299652,-0.270600478787662,-0.2826171477112,-0.213970199952603,-0.0652121260370932,0.0564739121426318,0.176916846640613,0.320564383197838,0.472361155002059,0.605925739474015,0.755236303914748,0.806756045391522,0.791838801210577,0.791424433316662,0.834242449021218,0.840181722167335,0.888662765755398,0.903994377830258,0.911176754658119,0.964077722447942,0.985072362406305,0.960900901927926,0.983414890830646,0.998746502905502,0.298556843943236,38,"prev_rew",3209.94264171931,144.79886323504,"risk",TRUE,"autists","trained"
"44","P307",2485046,"RESPONSE REW INV5_21",5,"5_21",1955,2482921,TRUE,TRUE,TRUE,TRUE,FALSE,FALSE,FALSE,TRUE,FALSE,"risk",FALSE,-1,0,FALSE,3166.31752391543,190.727263551456,0.380348079715042,0.0988736717430543,0.940320629863477,0.94529304459046,0.937143809343461,0.979685579785411,0.869463720004002,0.704821543488413,0.387968227274688,0.0332693100833901,-0.217789821949098,-0.38752593454513,-0.585081140378041,-0.782636346210952,-0.959746746406303,-0.40057387484569,-0.361623292817674,-0.279854695085099,-0.212865218902164,-0.200157936822101,-0.0565104002648752,0.0182139432711405,0.0818884763027581,0.134236953567362,0.0570264026678514,-0.0262615440090774,-0.0295764871603981,-0.0458749576543886,-0.0614828149918578,-0.10250523648945,-0.16548915636454,-0.0993284159694344,-0.0837205586319652,-0.0701845407640726,-0.127367310124354,-0.16106923216278,-0.258998177758041,-0.230959283603121,-0.0688033144510237,-0.0636927770927393,-0.114798150675595,-0.109411368054701,-0.0472561839674407,0.00895972697370294,0.0828553347218924,0.14003810408217,0.0130018451545641,-0.311700086461586,-0.640079871672036,-0.968459656882486,-0.639144158552106,0.489626483915187,0.821120799047244,0.974851287689733,1.0784432611685,1.03590149072655,1.06725532803279,1.08300130800157,1.14543273735144,1.22899692929098,1.29032337759041,1.29819636757479,1.41131880261361,1.37927435215084,1.39598719053875,1.28866590601475,1.19543312988386,1.15164825576016,1.14681396366449,1.0563436401597,0.809656620648925,0.363934889427614,-0.0508473723813712,-0.45416545579204,-0.72585267156902,-0.835383918193904,-0.849334303955711,-0.841461313971326,-0.784278544611045,-0.716598455271585,-0.605547859702344,-0.509828876207965,-0.356927123353301,-0.225848746244837,-0.0856542754702369,0.0281587727251026,0.142938679339576,0.230094059693049,0.322636222667412,0.363244276271089,0.515731661231835,0.444046015584527,0.491283955490846,0.465040655542893,0.476642956572514,0.467250617643772,0.601037035432665,0.63492312097952,0.593067778159791,0.573818505997027,0.64805314202205,0.678992611434375,0.174396108619297,21,"prev_rew",3209.94264171931,144.79886323504,"risk",TRUE,"autists","trained"
"45","P307",2488699,"RESPONSE LOSE VAL5_22",5,"5_22",661,2487869,TRUE,FALSE,TRUE,FALSE,TRUE,FALSE,FALSE,TRUE,FALSE,"risk",FALSE,-1,0,FALSE,3166.31752391543,190.727263551456,0.529506755149266,0.435382804776831,-0.83856073871392,-0.849886794480931,-0.838975106607834,-0.783035440929301,-0.713421634751569,-0.594221803935333,-0.503060867274018,-0.3458773128489,-0.222533803093516,-0.0758475686475797,0.0324405742955576,0.151640405111794,0.236723945995687,0.324984307399598,0.369736039942426,0.510621123873551,0.450399656624558,0.489902729177797,0.469046211850739,0.472223032370754,0.467250617643772,0.612940694930616,0.632411800410315,0.590556457590652,0.58475530707584,0.640180152037661,0.684517516686574,0.77346849124701,0.849850306358687,0.870706823685746,0.871121191579661,0.829822524819458,0.80012615908888,0.848883447939553,0.815457771163736,0.731617333961588,0.704821543488413,0.589627268980024,0.515179170706615,0.479681654461225,0.447637203998461,0.424018234045301,0.405509801450426,0.408272254076527,0.427251928589988,0.475081875389279,0.518476017577334,0.561870159765458,0.605264301953513,0.648658444141565,0.692052586329689,0.756387448946246,0.784794547014021,0.840734212692555,0.894878284164125,0.987972937663711,1.08189632695113,1.1636649246837,1.17167603729939,1.17084730151156,1.28106916129297,1.26338946448593,1.24930095609282,1.21960459036224,1.19584749777777,1.15593005733062,1.09860916533903,0.97692312715931,0.788800103321866,0.531201395937999,0.219044249188644,-0.0171454503429447,-0.102643359120755,-0.136621526421791,-0.110930716999055,-0.0573391360527077,0.0907283247062778,0.192939071871996,0.305785261648199,0.416283366692217,0.530510782781475,0.672086479869124,0.69156177088313,0.778302783342684,0.786313895958378,0.824988232723784,0.85509896634828,0.896950123633702,0.897502614158921,0.856894560555243,0.810347233805452,0.8281650532438,0.837833637435152,0.815734016426346,0.83203248692034,0.830236892713373,0.862419465807446,0.918911622011199,0.8722261726301,0.891563341012804,0.593051559214459,22,"prev_rew",3209.94264171931,144.79886323504,"risk",TRUE,"autists","trained"
"46","P307",2500857,"RESPONSE LOSE VAL5_25",5,"5_25",1307,2499381,TRUE,FALSE,TRUE,TRUE,FALSE,FALSE,FALSE,TRUE,FALSE,"risk",FALSE,-1,0,FALSE,3166.31752391543,190.727263551456,0.360753938995066,0.183468806387425,-0.100433397019874,0.0771923068383853,0.231613408637402,0.279680084331551,0.347912664196233,0.315039477945636,0.342940249469251,0.378437765714641,0.387968227274688,0.378990256239863,0.398327424622565,0.412968423540897,0.411449074596543,0.406200414606953,0.424156356676606,0.455095826088931,0.453438354513269,0.495565757061301,0.470703683426397,0.462001957654183,0.338382202636186,0.3305092126518,0.301586333656528,0.138518755137816,-0.137726507472231,-0.413971770082277,-0.268473390265564,0.295011696406407,0.259514180161017,0.342525881575336,0.392664396739061,0.304680280597759,0.361034314170208,0.414487772485254,0.39017818937557,0.3745703320381,0.342664004206641,0.345840824726657,0.355233163655399,0.317801930571737,0.259514180161017,0.261862264893203,0.262829123312338,0.198049609230281,0.146253622490897,0.171188482740658,0.162948120944356,0.155784084050944,0.148620047157533,0.147838307451702,0.426366318777484,0.495980124955219,0.554405997997241,0.602196428428779,0.678163875646542,0.771120406514823,0.8997125762598,0.949298600898305,0.997365276592453,1.15938312311325,1.18148274412205,1.28162165181819,1.25855517239025,1.27305804867728,1.19764309198474,1.15081951997233,1.21076474195872,1.08355379852679,0.733689173431162,0.179403054004104,-0.373225593847295,-0.644222196467753,-1.14858615210934,-1.63620426661035,-1.96317598231034,-2.29014769801027,-2.61711941371019,-2.2380632427666,-1.25997288682555,-0.352092831257627,0.0457003469008403,0.294597328512492,0.296945413244679,0.359514965225854,0.516974764913582,0.581339911101721,0.627610992588906,0.709932080846697,0.719462542406745,0.709379590321478,0.727197409759825,0.743219634991209,0.678716366171762,0.591008495293073,0.433548695605345,0.323741203717854,0.294873573775102,0.267663415408012,0.182994242418034,0.0581313837182937,-0.123977550547743,25,"prev_rew",3209.94264171931,144.79886323504,"risk",TRUE,"autists","trained"
