"","fname","time","text","block","info","RT","fix_cross_time","risk","rew","prev_rew","next_risk","prev_risk","learning","critical","trained","last_trial","trial_type","blink","blink_time","blink_duration","meg","Zmean","Zsd","BL_fix_m300","inter_trial","V_m1999_m1950","V_m1949_m1900","V_m1899_m1850","V_m1849_m1800","V_m1799_m1750","V_m1749_m1700","V_m1699_m1650","V_m1649_m1600","V_m1599_m1550","V_m1549_m1500","V_m1499_m1450","V_m1449_m1400","V_m1399_m1350","V_m1349_m1300","V_m1299_m1250","V_m1249_m1200","V_m1199_m1150","V_m1149_m1100","V_m1099_m1050","V_m1049_m1000","V_m999_m950","V_m949_m900","V_m899_m850","V_m849_m800","V_m799_m750","V_m749_m700","V_m699_m650","V_m649_m600","V_m599_m550","V_m549_m500","V_m499_m450","V_m449_m400","V_m399_m350","V_m349_m300","V_m299_m250","V_m249_m200","V_m199_m150","V_m149_m100","V_m99_m50","V_m49_0","V_1_50","V_51_100","V_101_150","V_151_200","V_201_250","V_251_300","V_301_350","V_351_400","V_401_450","V_451_500","V_501_550","V_551_600","V_601_650","V_651_700","V_701_750","V_751_800","V_801_850","V_851_900","V_901_950","V_951_1000","V_1001_1050","V_1051_1100","V_1101_1150","V_1151_1200","V_1201_1250","V_1251_1300","V_1301_1350","V_1351_1400","V_1401_1450","V_1451_1500","V_1501_1550","V_1551_1600","V_1601_1650","V_1651_1700","V_1701_1750","V_1751_1800","V_1801_1850","V_1851_1900","V_1901_1950","V_1951_2000","V_2001_2050","V_2051_2100","V_2101_2150","V_2151_2200","V_2201_2250","V_2251_2300","V_2301_2350","V_2351_2400","V_2401_2450","V_2451_2500","V_2501_2550","V_2551_2600","V_2601_2650","V_2651_2700","V_2701_2750","V_2751_2800","V_2801_2850","V_2851_2900","V_2901_2950","V_2951_3000","resp_1001_2200","index","feedback_prev","Zmean_2","Zsd_2","trial_type4","resp_flag","group","train"
"1","P001",2576502,"RESPONSE REW INV1_13",1,"1_13",774,2575545,TRUE,TRUE,TRUE,FALSE,FALSE,FALSE,FALSE,FALSE,FALSE,"unused",FALSE,-1,0,FALSE,4896.69603769499,300.578838801003,-1.14537265302165,-0.885663308373011,0.444613733667069,0.365372694959729,0.0929420038838984,-0.289237525801601,-0.658817730332636,-1.03331087926352,-1.38466564489187,-1.66208852140626,-2.01946560597636,-2.08082377088681,-1.98911628815145,-1.89036976299306,-1.79162323783471,-1.69287671267632,-1.59413018751794,-1.49538366235955,-1.39552044810186,-1.27713555536601,-1.11928740626098,-0.821578823837511,-0.622366852527257,-0.700419275653989,-0.631479571978601,-0.573395890606122,-0.551921569116433,-0.398431677140317,-0.359682809212428,-0.353660490270669,-0.386070075101972,-0.397480784675829,-0.218871483429486,-0.213720815913508,-0.249379283331811,-0.329808937619762,-0.385911593024557,-0.439320053113303,-0.496611324098709,-0.549861302110044,-0.538292110458772,-0.496135877866466,-0.454772055661236,-0.363882584263915,-0.267525481195792,-0.134321295128754,-0.167651314956886,-0.189644703967239,-0.0321950830829562,0.12525453780133,0.282704158685652,0.440153779569935,0.597603400454218,0.798746065476306,0.706663848672243,0.746403229583972,0.857221822216188,0.930202818865648,0.870138111525485,0.815937241049664,0.793036580863244,0.778297747663677,0.767283243283358,0.773860249496067,0.815699517933544,0.815699517933544,0.843988568752062,0.849059995229334,0.915701708782206,0.825366924655838,0.428765525925601,-0.0870143950204703,-0.527673811271987,-0.835287523533881,-1.06595818721094,-1.32634424040326,-1.46699708410879,-1.3800582687784,-1.34568461927196,-1.31321964521962,-1.28075467116729,-1.24828969711495,-1.21582472306261,-1.12648111447058,-1.07879523548154,-0.903276334744778,-0.828710517321169,-0.559449467793628,-0.247081293209299,-0.147396066515462,-0.0145088446032537,0.135732164785859,0.233040160318474,0.374802378565903,0.439700789267215,0.452617078576512,0.447466411060534,0.305228746580861,0.188585937603655,0.0816897763874556,-0.0425601723056553,-0.292803372543433,-0.381926429119563,13,"prev_rew",4890.72195215003,252.39447041912,"risk",TRUE,"normals","not_trained"
"2","P001",2756959,"RESPONSE LOSE VAL2_6",2,"2_6",1242,2755548,TRUE,FALSE,FALSE,FALSE,FALSE,FALSE,FALSE,TRUE,FALSE,"risk",FALSE,-1,0,FALSE,4896.69603769499,300.578838801003,-3.1291236965457,-2.58954697256275,-2.90236925925354,-3.03600202525758,-3.1608933022017,-3.28576731261596,-3.41064132303027,-3.53551533344457,-3.62142865260958,-3.56894487685968,-3.28890704606795,-2.96806008034193,-2.65997092184779,-2.39649446814589,-2.25346439327914,-1.97350580352611,-1.75186861826168,-1.59013765826,-1.50550822892056,-1.40257411963972,-1.28521814131415,-1.24520141676695,-1.26453623021154,-1.31366567421009,-1.4390249974451,-1.69204163403764,-1.87017548905174,-2.12089413552176,-2.24038962189243,-2.28587397811044,-2.22676016323476,-2.17303473899119,-2.07612294865211,-1.91209399852792,-1.75345343903582,-1.66383182425782,-1.57785529726036,-1.49996135621104,-1.39338215914967,-1.24876726350878,-1.19670590107805,-1.13188673141545,-1.11500839017079,-1.06302626877877,-0.98782652304551,-0.965639032207453,-0.864844430971719,-0.720704981563068,-0.693208341131619,-0.664760808235686,-0.528783185813889,-0.515629173388472,-0.414755331114028,-0.319269879471682,-0.301282163685116,-0.386228557179387,-0.288365874375823,-0.138521070180241,-0.0194217890031115,0.0670301842265985,0.146191981895229,0.18549553709407,0.178126120494289,0.218380568157617,0.253325866227552,0.290648395458709,0.268540145659362,0.28613165625239,0.306338121122763,0.225512261641278,-0.152771676334874,-0.717363225070502,-1.35362957139817,-1.76494338964839,-1.97279263417774,-2.17121219510092,-2.40980696264872,-2.57343970757938,-2.54144955821354,-2.47178661873862,-2.40209580293738,-2.33240498713614,-2.26271417133491,-2.19302335553367,-2.03750597704598,-1.79608511786037,-1.46572922748947,-1.15415346329221,-0.819756279947242,-0.643048763629873,-0.554774246509898,-0.514916004040104,-0.483615793750707,-0.445580095171182,-0.375847981108725,-0.371806688134649,-0.479257536621802,-0.768962774135835,-0.950583234853058,-1.26929069253398,-1.5361745109003,-1.77896905349959,-1.21358424232272,6,"prev_lose",4890.72195215003,252.39447041912,"risk",TRUE,"normals","trained"
"3","P001",2792724,"RESPONSE LOSE VAL2_16",2,"2_16",2288,2790268,TRUE,FALSE,FALSE,FALSE,FALSE,FALSE,FALSE,TRUE,FALSE,"risk",FALSE,-1,0,FALSE,4896.69603769499,300.578838801003,-0.490798296272491,-0.157861808188464,0.503172861271796,0.387639426836495,0.164179697681795,-0.110945188710087,-0.318081263891075,-0.52521733907206,-0.687661468422106,-0.758502957026468,-0.824114537076144,-0.845826581681957,-0.823956054998729,-0.862784163965326,-1.04995149739206,-1.0006635713161,-0.836634621191903,-0.35484910585128,-0.180360338617718,-0.0931951960396443,-0.0445411982733388,-0.0965233196653532,-0.242643795041688,-0.209996487094261,-0.14660365612839,-0.0627666371760248,0.0164744015313149,0.0963493685483127,0.139139529450277,0.209981018054639,0.306813567355006,0.382568000359223,0.474804569414569,0.480644356469497,0.428509919617855,0.376093668332865,0.323677417047839,0.271261165762853,0.410150048447163,0.722512056413711,0.635980842145295,0.553253197734832,0.767837930554311,0.817918267017347,0.761023201225479,0.787489708153728,0.919505278640158,0.941375805323382,0.922838446788226,0.942819379471522,1.02058909915775,1.09835881884399,1.17612853853026,1.25389825821649,1.33166797790276,1.40943769758899,1.5314310632806,1.54249832495726,1.54883760805385,1.62253177405167,1.69892013536555,1.75629064738966,1.78545134963396,1.80209196776251,1.83156963416164,1.82729061807144,1.8398107021872,1.87166559974755,1.84282186165808,1.63584426855451,1.14122170494329,0.535344722986975,0.0960324043934837,-0.298904932523898,-0.6681681729001,-0.95438680471101,-1.20161884547791,-1.49829729439819,-1.58815663229231,-1.75979272213241,-1.83079269281419,-1.62115260081005,-1.3917621201361,-1.16108265189918,-0.93040318366227,-0.701787504255656,-0.595900345599008,-0.427116933152373,-0.203498721920262,-0.0258403131384056,0.172579247784773,0.275117151872071,0.346117122553847,0.397940761868447,0.421871555558063,0.436451906680215,0.417275575313038,0.36957247001122,0.294927411548905,0.151659613566036,-0.0401037001057246,-0.173070163056642,0.0251182781703061,16,"prev_lose",4890.72195215003,252.39447041912,"risk",TRUE,"normals","trained"
"4","P001",2799889,"RESPONSE REW INV2_18",2,"2_18",1023,2798697,TRUE,TRUE,TRUE,TRUE,FALSE,FALSE,FALSE,TRUE,FALSE,"risk",FALSE,-1,0,FALSE,4896.69603769499,300.578838801003,-0.814839213771747,-0.486268125876479,-0.0901840365687646,-0.476167136112216,-0.840834396243393,-1.11532535432562,-1.33823039620936,-1.43659809279694,-1.37352340868796,-1.30551803964807,-1.23751267060818,-1.16950730156833,-1.10150193252843,-1.03349656348855,-1.03104718750105,-0.838219441966052,-0.610876901914694,-0.395341276630731,-0.217920590964995,0.00239591032098857,0.150365343267138,0.199600441983978,0.325831416644769,0.411490979487402,0.465374885808395,0.530035573393583,0.519575756284213,0.416562405964671,0.36782916715966,0.354437431618119,0.263468719182093,0.183356029048972,0.132087077005325,0.118061413154126,0.0914364241484585,0.114971012644537,0.119883957044391,0.143260063463058,0.261012246982166,0.338193018683113,0.40293294730701,0.479717513814423,0.525281111071143,0.610069022487995,0.723938395110441,0.827347950623521,0.884401498492804,0.900091224156858,0.934640317033259,0.969110168870951,1.04351750421715,1.05326415197815,1.05310566990073,1.04129875513334,1.03083893802397,0.931391434446259,0.952548791781119,0.979807709096444,1.03171058944975,1.10168042662833,1.35334996556284,1.50446262637774,1.53901171925414,1.60018580113621,1.65383198434108,1.71144021948131,1.76072814555727,1.79147366857572,1.79900156725292,1.68552839982401,1.29494932003553,0.779724086360412,0.233277883434597,-0.501445027459858,-0.873085498997282,-1.10573718864203,-1.24971815597327,-1.38062435191779,-1.43094241149695,-1.25431413621829,-1.12427959169955,-1.07578407601066,-0.906921422525316,-0.631479571978601,-0.425769835494347,-0.236542235061219,0.0407221593757604,0.228840385266983,0.349603728256971,0.435659496293142,0.558324624212104,0.651670567809349,0.73027767820703,0.80476425459193,0.874417127615681,0.905875819982494,0.674175022802234,0.481143852511154,0.414502138958282,0.326544585993136,0.18969531214556,-0.0324173193511142,0.152187887157418,18,"prev_rew",4890.72195215003,252.39447041912,"risk",TRUE,"normals","trained"
"5","P001",2805914,"RESPONSE LOSE VAL2_19",2,"2_19",3550,2802196,TRUE,FALSE,TRUE,FALSE,TRUE,FALSE,FALSE,TRUE,FALSE,"risk",FALSE,-1,0,FALSE,4896.69603769499,300.578838801003,-0.293182729144038,0.144175737688118,-0.38226650524402,-0.315387068575024,-0.220456304203631,-0.0821014506206161,0.0248739516342925,0.0419900159950767,0.0866819618260189,0.150550239024134,0.127887301953834,0.117269002767049,0.103164097877145,0.13042301519247,0.160693091978672,0.19619307731956,0.162277912752821,0.150867203178963,0.125510070792612,0.15657255796589,0.205226555732199,0.272898402788267,0.218063604002787,0.311251065522617,0.336608197908968,0.333280074283259,0.257367159201628,0.14738059747584,0.0824029457358228,0.0551440284204975,0.109908390727114,0.424486892642368,0.545567965401063,0.60298900794262,0.660410050484176,0.717831093025732,0.906509748292155,0.823623621804278,0.779882568437826,0.762924986154453,0.617755403242609,0.580195150895328,0.627581292042317,0.674175022802234,0.652146014041592,0.689706266388873,0.686378142763164,0.906132381534229,0.976857849297003,1.03516729287412,1.0934767364512,1.15178618002832,1.21464435824999,1.38354080131034,1.25691362145601,1.31111449193183,1.3410676045632,1.4543822899147,1.48449388462349,1.51032646324208,1.5288688662996,1.61223043901972,1.6466210498187,1.66246925756017,1.66405407833432,1.66643130949554,1.66611434534071,1.63727060725124,1.60604963800055,1.44772604266328,1.05041147458468,0.529797850277459,0.0878861293862061,-0.0630687899217394,-0.166748653650987,-0.270428517380195,-0.374108381109443,-0.477788244838688,-0.581468108567896,-0.548367571501903,-0.563094555574166,-0.582429369018758,-0.40191828284344,-0.269427266124766,-0.063717529640512,0.187159598906924,0.379873805043176,0.479400549659594,0.564822389386104,0.659436189602668,0.783686138295779,0.851357985351847,0.882103508370292,0.872436101647998,0.882895918757368,0.860074499609653,0.778297747663677,0.633603610984077,0.536454097528877,0.491286705465695,0.496516614020378,0.513474196303748,0.437059421310302,19,"prev_rew",4890.72195215003,252.39447041912,"risk",TRUE,"normals","trained"
"6","P001",2993513,"RESPONSE LOSE VAL3_11",3,"3_11",1393,2991943,TRUE,FALSE,TRUE,FALSE,FALSE,TRUE,FALSE,FALSE,FALSE,"learning",FALSE,-1,0,FALSE,4896.69603769499,300.578838801003,0.706899728973509,0.516451395329474,0.579244258430841,0.529005439890387,0.5507174844962,0.611574602223435,0.60222415965597,0.606186211591337,0.717123665781613,0.906826712446984,0.984482930380175,1.06102977377147,1.12458108681475,0.984324448302761,0.998904799424912,1.09510342041562,1.19558105749653,1.13757661716276,0.817442820785104,0.415215308306649,0.05894759827845,-0.169900521508348,-0.362139281412356,-0.506357971859712,-0.519987430517377,-0.635203900797848,-0.706362353557039,-0.739326625659292,-0.752639120162123,-0.706362353557039,-0.65438657144812,-0.559997815781486,-0.4781481620799,-0.422837917062177,-0.379413827850554,-0.392726322353386,-0.406038816856221,-0.392409358198557,-0.458496384480479,-0.534726263716939,-0.606677126863203,-0.644554343365313,-0.631875777172139,-0.602239628695593,-0.550415989380993,-0.550574471458407,-0.58322177940583,-0.387217587042186,-0.308404534693621,-0.223654760675081,-0.138904986656537,0.041639151930651,0.12471766040554,0.222184138015569,0.319650615625595,0.465612608924515,0.554996500586395,0.589704075540211,0.618072367397438,0.609355853139632,0.808250860295053,0.909045461530788,0.932659291065575,0.970536507567685,0.933610183530062,0.889869130163611,0.850407092887356,0.817918267017347,0.822672729339787,0.719183932788002,0.435342532138313,0.0283605573374159,-0.366576779579966,-0.664150623630751,-0.747390045002397,-0.823913430757709,-0.900436816512981,-0.976960202268253,-1.03508936856911,-0.835208282495172,-0.898442631383629,-0.70509449693772,-0.434407108713449,-0.271962979363402,-0.212690682410312,-0.0446996803507533,0.106175257348025,0.264181888530457,0.399208618487763,0.45325100688617,0.476389390188714,0.516326873697213,0.57036926209562,0.676869218118285,0.691132605085604,0.710467418530195,0.705395992052926,0.71981786109766,0.704445099588439,0.707773223214144,0.702543314659461,0.722195092258882,-0.063185954339187,11,"prev_rew",4890.72195215003,252.39447041912,"risk",TRUE,"normals","not_trained"
"7","P001",3083679,"RESPONSE REW INV3_33",3,"3_33",1630,3081872,TRUE,TRUE,TRUE,FALSE,FALSE,FALSE,FALSE,TRUE,FALSE,"risk",FALSE,-1,0,FALSE,4896.69603769499,300.578838801003,0.189805881036761,-0.102266970273435,0.180344869578092,0.211724320906199,0.247699752479331,0.279237685884852,0.327257755341499,0.343105963082967,0.363074704837217,0.403487634577963,0.426626017880503,0.427735392422408,0.435659496293142,0.383043446591466,0.247541270401916,-0.0516728917569965,-0.0114184440936685,-0.0488202143635348,-0.0505635172150947,-0.101911710297451,-0.166096951650395,-0.247873703596371,-0.37006338528309,-0.311583498717072,-0.267842445350621,-0.234719691170954,-0.217445144732752,-0.236462994022514,-0.25294513007364,-0.244862544125491,-0.195099171817284,-0.031704150002747,0.0906483047923589,0.232967498860599,0.375286692928842,0.517605886997086,0.659925081065326,0.824926378808873,0.896525377415029,0.8670477110159,0.861342356228969,0.919029832407914,1.00587801083116,1.00809675991496,1.08717931654489,1.08638690615781,1.13282215484032,1.1909850772515,1.23583550515986,1.25120826666908,1.24375960903059,1.21602524548302,1.24898951758528,1.27830870190699,1.30065467482246,1.34693144142755,1.49527066588769,1.62364114859358,1.66373711417949,1.73061655084849,1.76183752009918,1.80589553762046,1.85201382214813,1.92428164944922,1.93315664578445,1.95122360260972,1.96453609711255,2.03109856962672,2.10146461199884,1.9910026040408,1.46785326649495,0.868236326596507,0.414581379996988,0.119329269773442,-0.134875982399703,-0.229014336384023,-0.487815568802194,-0.592609347497739,-0.633744827767726,-0.649712795265461,-0.665680762763154,-0.681648730260846,-0.697616697758539,-0.713584665256232,-0.729552632753964,-0.652849702480364,-0.343121432122593,-0.171802306437326,-0.0675210994984644,0.0389788565242005,0.120914090547587,0.179552459191019,0.285735451058855,0.396038976939473,0.404597009119865,0.446436277557338,0.520605889787409,0.560226409141079,0.597469697333531,0.639150483693589,0.529322404045216,0.624728614648852,0.489586324843433,33,"prev_rew",4890.72195215003,252.39447041912,"risk",TRUE,"normals","trained"
"8","P001",3473642,"RESPONSE LOSE VAL5_9",5,"5_9",1426,3472033,TRUE,FALSE,TRUE,FALSE,FALSE,FALSE,FALSE,TRUE,FALSE,"risk",FALSE,-1,0,FALSE,4896.69603769499,300.578838801003,0.266564061418485,0.572636834417069,-0.483756155863636,-0.3201355810584,-0.156515006253123,0.00710556855211702,0.170726143357393,0.357818562901117,0.670529935021696,0.742401557129255,0.819027641559249,0.910709523343642,1.00159899474096,1.09645051807365,1.1229962660406,1.14874960362049,1.19819601177387,1.20255426890277,1.1833779375356,1.09748065157684,1.01522845339862,0.814510902352933,0.592952958127211,0.37282135259822,0.270600412665755,0.380983179585077,0.330110432734965,0.313628296683839,0.260933005943457,0.233040160318474,0.125747793908736,0.0240023002085107,0.0163951604926058,0.0915949062258731,0.177412951145921,0.297621606864956,0.401506608610279,0.570290021056911,0.675918325653794,0.788282118540804,0.936066655729989,1.05302642886202,1.17616700301323,1.30390355740946,1.39162338725849,1.43774167178616,1.4759358524431,1.38568030935544,1.37870709794919,1.46832871272719,1.47466799582378,1.40834324642574,1.46761554337883,1.53631752393809,1.56524050306627,1.66072595470861,1.72926945319046,1.81310647214283,1.84361427204515,1.9703999339769,2.03973584284582,2.068658821974,2.08720122503152,2.10986416210181,2.12785187788838,2.14473021913304,2.16034070375839,2.19568220702186,2.20947014775694,2.08720122503152,1.71682861011341,1.12228309669224,0.699452914149876,0.421079145170991,0.218459809196322,-0.0962855965492296,-0.302866984459265,-0.447085674906622,-0.562539868303217,-0.565810362082576,-0.52747210680982,-0.397976469961254,-0.268480833112691,-0.138985196264089,0.0204282206314817,0.214497757260955,0.444613733667069,0.61022750456541,0.764192842773773,0.925765320698038,0.955876915406824,1.07917597163545,1.16546946278774,1.23020939141164,1.34407876403408,1.35588567880148,1.32941917187323,1.23781653112754,1.27585222970706,1.25754754976567,1.26071719131396,1.24471050149508,0.759494509520415,9,"prev_rew",4890.72195215003,252.39447041912,"risk",TRUE,"normals","trained"
"9","P001",3521916,"RESPONSE LOSE VAL5_22",5,"5_22",1787,3519946,TRUE,FALSE,FALSE,FALSE,FALSE,FALSE,FALSE,TRUE,FALSE,"risk",FALSE,-1,0,FALSE,4896.69603769499,300.578838801003,0.478854610257666,0.759060542385975,0.926636972123819,1.0376536673528,1.17561231574228,1.22529644701178,1.26277745832035,1.33837340924716,1.33013234122159,1.297801997429,1.24415581422413,1.04082330890109,0.91261130827262,0.80024751538561,0.587802290611233,0.397306833558789,0.216478783228638,0.125193106637783,0.193815846158342,0.260536800749919,0.320284543935256,0.376070235185223,0.408321337939108,0.472189615137223,0.587485326456404,0.680989752131066,0.779882568437826,0.8670477110159,0.99835011215396,1.09906547235099,1.14748174700117,1.18179311676145,1.17093709445855,1.12822617459529,1.06625968232615,1.05405656236522,1.01942822845011,0.984482930380175,0.938206163775091,0.863085659080533,0.799930551230781,0.788836805811753,0.830438351133106,0.887967345234637,0.964593429664635,1.01087019626972,1.04478536083646,1.12347171227285,1.16190361604591,1.15913017969115,1.16840138121991,1.1748199053552,1.19827525281258,1.24994041004976,1.29494932003553,1.34835778012428,1.39986445528405,1.46983429246263,1.56991572435,1.6606467136699,1.68750942579169,1.80494464515597,1.80280513711087,1.90415442561756,1.96295127633841,1.98482180302163,2.03680392441365,2.15843891882941,2.1917993961252,2.07349252533515,1.69194692395931,1.20532770525753,0.89379781745111,0.629490027939621,0.363267941756155,0.0970458555727245,-0.169176230610706,-0.437500289610374,-0.645029789597557,-0.642442610529667,-0.502385299991327,-0.320621061719314,-0.138856823447336,0.0429074148246381,0.224671653096652,0.51621087135187,0.783686138295779,0.910075595033984,1.03995165747531,1.14985897816239,1.21586676340561,1.29867364885478,1.33155867991832,1.37220933277519,1.39312896699393,1.37609214367185,1.31349172309305,1.01253425808257,0.933927147684891,1.02743157335955,1.08939806562869,0.818155990133471,0.7884967296873,22,"prev_lose",4890.72195215003,252.39447041912,"risk",TRUE,"normals","trained"
"10","P004",4276366,"RESPONSE LOSE VAL1_9",1,"1_9",1657,4274537,TRUE,FALSE,FALSE,FALSE,FALSE,FALSE,FALSE,TRUE,FALSE,"risk",FALSE,-1,0,FALSE,3506.59445294222,258.180645143606,1.21859066861148,0.808227127695783,1.27751464162756,1.33067719961258,1.30826743520649,1.21513594676557,1.15741382632562,1.08552795868529,1.06787178066836,0.942241283240247,0.817386881549139,0.818259989253274,0.689234072975748,0.380444981613825,-0.189597337218302,-0.52729599478376,-0.767012565552002,-0.927567371145462,-1.06018273020665,-1.02739268531807,-0.982379132571629,-0.902053223791336,-0.885658201347049,-0.925530119835816,-0.946096656866521,-0.883329914136026,-0.875180908897446,-0.811735082397068,-0.736259771973073,-0.670388646294548,-0.630613739772906,-0.495379057599321,-0.309310104651733,-0.36771130886156,-0.313578631205276,-0.22587981292341,-0.262162288628519,-0.21171606572302,-0.205604311794086,-0.233640770293487,-0.284378029100363,-0.294079225812958,-0.257893762074976,-0.281273646152333,-0.339965886263537,-0.380807924423565,-0.420582830945207,-0.352868477891288,-0.333272060531845,-0.308048949079097,-0.325220067260391,-0.361405530998374,-0.299996955807641,-0.215790568342311,-0.0932644538622255,0.101632588093823,0.30235034807743,0.277321260558933,0.303126443814437,0.396257932255358,0.453592004826797,0.508791814121468,0.556812737848817,0.656735063988553,0.780134286172772,0.832714772355042,0.902951436554235,0.965621167317602,0.940107019963476,0.671383871024573,-0.0355423334222802,-0.723454192312447,-1.13808333980879,-1.40564234514218,-1.51351965258625,-1.60994954790945,-1.59297245366241,-1.54582463763919,-1.45628259198193,-1.25081124560915,-1.09015942804857,-0.928537490816723,-0.733640448860672,-0.412890859862853,-0.334538605658206,-0.333640346703363,-0.332742087748468,-0.331843828793625,-0.33094556983873,-0.11151276418218,0.134519644949523,0.20562941685285,0.246083407144375,0.346199757218363,0.493075875447064,0.5653497909559,0.65489183661316,0.712710969020231,0.852505213648737,0.890339880827859,0.939330924226469,0.937293672916824,-0.408292881866641,9,"prev_lose",3471.10741216888,206.160132533263,"risk",TRUE,"normals","trained"
"11","P004",4355649,"RESPONSE LOSE VAL1_24",1,"1_24",1490,4353988,TRUE,FALSE,TRUE,FALSE,FALSE,FALSE,FALSE,TRUE,FALSE,"risk",FALSE,-1,0,FALSE,3506.59445294222,258.180645143606,2.14262159801387,1.7914667079891,1.95504622003524,2.04711057683778,2.12947373692772,2.17254705033164,2.195926934409,2.1753603973783,2.17429326573991,2.09668369203914,1.93389761120179,1.77120854233156,1.77227567396994,1.7754770688851,1.77421591331246,1.76664897987664,1.54711089827059,1.19835287645277,1.04245464528136,0.781880501581039,0.550118912117126,0.402660722085669,0.362885815564028,0.405377057165196,0.373654143915008,0.393347573241577,0.443308736311446,0.235315078793392,0.29274616333196,0.448644394503373,0.547111541136221,0.641213149248401,0.73075519490566,0.765097431268249,0.743075714730656,0.850564974306217,0.879280516575501,0.934286301935917,1.03168631693038,1.13655625339354,1.16236143664904,1.23870985477717,1.29012619735393,1.34833337762951,1.40964494085311,1.44932283540763,1.50626886011056,1.57902783545503,1.66983103668493,1.80428962312151,1.82980377047563,1.80341651541737,1.89266752517326,1.97047112280827,1.99617929409665,2.06127432403817,2.11016835546965,2.23220941011411,2.33242277215522,2.40246541242016,2.47066482530971,2.55681145211756,2.60017580142286,2.6619724244821,2.69544155314056,2.702717450675,2.72687343048937,2.77431228241396,2.75083538636948,2.35570564426545,1.63005613016329,0.942920367010128,0.366766294249065,0.091931391381227,0.0635373318460969,0.0547758079719859,0.00552357850801813,-0.0437286509558989,-0.0929808804198645,-0.142233109883784,-0.191485339347749,-0.121585082800694,0.0138367578448315,0.122393149058779,0.233762887319378,0.477553960706909,0.758112569635179,1.01238093547232,1.17904749499471,1.33358755862636,1.42099534100685,1.39974972020626,1.34406485107596,1.33164731928384,1.33349054665923,1.25597798492559,1.18283096171262,1.10056481358981,0.998605236140428,0.979881926485118,0.913622752938089,0.898488886066441,1.02829494024627,24,"prev_rew",3471.10741216888,206.160132533263,"risk",TRUE,"normals","trained"
"12","P004",4366812,"RESPONSE REW INV1_26",1,"1_26",2541,4364100,TRUE,TRUE,TRUE,FALSE,FALSE,FALSE,FALSE,TRUE,FALSE,"risk",FALSE,-1,0,FALSE,3506.59445294222,258.180645143606,1.29062447144421,1.01946707694249,-0.714044031501229,-0.677858567763247,-0.625181069613853,-0.502654955133768,-0.372367883283606,-0.251393960277536,-0.134688563825009,-0.0627056842175501,0.0215007032477818,0.0851405536824095,0.164690366725695,0.295171462510109,0.37336310801363,0.62151971992183,0.61337071468325,0.511993209036624,0.518881058702567,0.566901982429916,0.605124697477544,0.682152199375553,0.842512981034763,0.860460194953064,0.944569570451271,0.992590494178618,0.993172565981375,0.990359218934723,1.00200065498984,0.994627745488263,0.944084510615639,0.939524948160721,0.930987895053636,0.88791458164971,0.758888665372186,0.586595411756486,0.449420490240383,0.392280441603193,0.402854746019921,0.382579244890597,0.395869884386852,0.47202427858073,0.526350980171265,0.511120101332491,0.602990434200773,0.720180890488929,0.714166148527121,0.727941847859005,0.790805602556626,0.779746238304268,0.687487857567483,0.657317135791308,0.773343448473954,0.845035292180038,0.723576309338339,0.813409390896976,0.929629727513873,1.00898551662291,1.13393693028114,1.22241184430001,1.33203536715234,1.40304812708855,1.52431308599599,1.61424317952176,1.74870176595833,1.87287708387956,1.9100326672888,1.93147231202364,1.90052549451046,1.49938101044462,0.663525901687371,-0.0646459235600675,-0.553586237874895,-0.832689667296276,-1.04930797827978,-1.13886414135015,-1.16510805036747,-1.19135195938473,-1.21759586840205,-1.23201698690327,-0.777004798165976,-0.505177266279042,-0.239170452419666,-0.0650339714285732,0.136265860357789,0.508985838055719,0.803805206151506,1.06195405067368,1.33407261846199,1.45756885261333,1.5295517322208,1.61152684444223,1.69117366945264,1.82563225588922,1.90712230827502,1.92351733071931,1.99579124622815,1.99317192311575,1.9735755057563,1.95232988495572,1.91391314597384,1.89538386025278,0.21994878741717,26,"prev_rew",3471.10741216888,206.160132533263,"risk",TRUE,"normals","trained"
"13","P004",4392264,"RESPONSE LOSE VAL1_31",1,"1_31",2254,4389840,TRUE,FALSE,TRUE,FALSE,FALSE,FALSE,FALSE,TRUE,FALSE,"risk",FALSE,-1,0,FALSE,3506.59445294222,258.180645143606,0.650490522915257,0.547113208008501,0.409936619620116,0.150332595591053,0.0196574758723881,-0.040586955712832,-0.0220576699917733,0.116378407096968,0.227554121423316,0.303223455781563,0.258694962870749,0.419055744529957,0.529649387053549,0.719501806719048,0.757918545700928,0.818454013187525,0.887720557715458,0.837856406612717,0.725613560647982,0.675846421512367,0.659936458903709,0.665078093161385,0.723285273436959,0.82146138416843,0.93399526603454,1.05962576346266,1.18690546433191,1.41352541953815,1.64286170982391,1.76150734561896,1.90974163138742,1.97997829558662,2.07796038238383,2.15935342280251,2.24947754026253,2.3196171924946,2.2897375066198,2.30875185217649,2.38936879685816,2.38820465325265,2.4668813585918,2.38626441391013,2.31845304888908,2.31399049840129,2.23414964945662,2.27091718499736,2.32107237200148,2.39208513193769,2.53275248427033,2.44466561811995,2.40838314241485,2.36045923065462,2.373070786381,2.43147199059082,2.44330745058019,2.42991979911681,2.48230626136483,2.50743236085045,2.58931046110476,2.63539114548959,2.67836744692639,2.74908917096121,2.83251946268953,2.90818879704778,2.96397067814521,2.98657446648555,2.97241071928516,2.94243402144324,2.85328002365449,2.52547658673588,1.69916191200286,0.848494461750685,0.240844760919573,-0.0779365630563249,-0.183012388226716,-0.197214521457242,-0.209428258325612,-0.221641995193985,-0.233855732062357,-0.24881441905094,-0.234804913898999,-0.280691574349577,-0.185522834599011,-0.0791977186289612,0.064962064520211,0.291582019726447,0.519366118538196,0.767813766347775,0.96882256223276,1.14955585698842,1.23143395724273,1.31593138060944,1.38519792513737,1.38956346365804,1.40401824675981,1.33271445092223,1.32834891240156,1.31272998569428,1.28188018014823,1.28750687424153,1.35609433499958,1.3632732205669,0.999074127314871,31,"prev_rew",3471.10741216888,206.160132533263,"risk",TRUE,"normals","trained"
"14","P004",4420381,"RESPONSE REW INV1_37",1,"1_37",766,4419444,TRUE,TRUE,FALSE,TRUE,FALSE,FALSE,FALSE,TRUE,FALSE,"risk",FALSE,-1,0,FALSE,3506.59445294222,258.180645143606,1.08878478901024,0.812529282329229,-0.916993066728733,-0.966634388296077,-0.946453912540666,-0.910033037510483,-0.873612162480251,-0.837191287450019,-0.800770412419787,-0.350748782964532,0.0617606696050551,0.152563870834951,0.216203721269578,0.381900161120716,0.543037038516931,0.683510366915317,0.814767558436738,0.948741085037685,1.0156793423546,1.07049110378076,1.11560166849433,1.16362259222168,1.14586940223763,1.11152716587504,1.03314149643727,0.982016189761889,0.938942876357963,0.949905228643198,0.96086758092843,0.983180333367402,0.849691866602084,0.418764708628579,-0.107913260898245,-0.39914318621037,-0.534086832482578,-0.581525684407172,-0.5035280628379,-0.469379850409563,-0.429798967822173,-0.343846364948576,-0.294370261714336,-0.238491368649784,-0.205798335728338,-0.130614061205721,-0.0227367537616544,0.135004704785153,0.158869648698139,0.196122244074506,0.219502128151862,0.279067475967199,0.334752345097499,0.479785235950806,0.475031649561634,0.487934241189386,0.544104170155317,0.700778497063738,0.79575321288005,0.847557603325313,1.01597037825597,1.15925705370101,1.31360309339841,1.38762322431552,1.56360293268201,1.71629976893826,1.78508125363057,1.85784022897504,1.86424301880535,1.93748705398545,1.81544599934099,1.54992424531725,0.742202607026521,-0.00226722869807828,-0.589189629810123,-1.00265463370095,-1.26148256199301,-1.35383795469692,-1.41311226661088,-1.49453741170935,-1.54383135578227,-1.55953473175588,-1.57523810772954,-1.59094148370316,-1.60664485967677,-1.46401423638351,-0.804071136994118,-0.571436439826071,-0.54339998132667,-0.395456731459585,-0.24819256536238,-0.0821080776427417,0.0893120682688263,0.290514888088063,0.436129850744125,0.539641619667523,0.549730864248622,0.604154577806283,0.628601593522025,0.629862749094663,0.602408362398018,0.574080867997237,0.549342816380119,0.567678078166923,-0.125027788765384,37,"prev_lose",3471.10741216888,206.160132533263,"risk",TRUE,"normals","trained"
"15","P004",4567455,"RESPONSE REW INV2_4",2,"2_4",3344,4563941,TRUE,TRUE,TRUE,FALSE,FALSE,FALSE,FALSE,FALSE,FALSE,"unused",FALSE,-1,0,FALSE,3506.59445294222,258.180645143606,0.159468157744499,-0.139189878929086,-0.192410684264955,-0.227723040298804,-0.220059094895854,-0.303780422525554,-0.385658522779863,-0.448716301411736,-0.501490811528257,-0.468118694836927,-0.560280063606587,-0.633815134688062,-0.673687053176832,-0.68979103971974,-0.754012961957125,-0.803198029289985,-0.790974521432114,-0.743438657540394,-0.671940837768564,-0.610047202742202,-0.477819891549523,-0.432321278967448,-0.430769087493432,-0.360241387392861,-0.28612424450863,-0.250811888474781,-0.287676435982644,-0.338025646921017,-0.418739603569813,-0.503043003002271,-0.487327064327867,-0.496349177270579,-0.439791200436147,-0.421455938649342,-0.371591787546599,-0.31542185858067,-0.263035396332651,-0.200656701470662,-0.162433986423034,-0.114704098597063,-0.0776455271549473,-0.0582431337297557,0.0911552956442201,0.0683574833696187,0.184577819986516,0.218434996513476,0.213972446025681,0.0682604714024928,0.189234394408562,0.260344166311891,0.331647962149469,0.344550553777221,0.417600565023067,0.515194603951782,0.604930673543293,0.749575516528094,0.833199832190671,0.892086096236127,0.925652236861708,0.980463998287873,1.04546201626227,1.10803473505851,1.19476343366912,1.20659889365848,1.26791045688209,1.36278816073127,1.38946645169091,1.4764861862029,1.4817248324277,1.05070066248707,0.385586615871501,-0.25973698945037,-0.596441274352787,-0.806523311109103,-1.02447249401032,-1.24242167691157,-1.46037085981279,-1.678320042714,-1.59749793083156,-1.24033395315955,-1.05387695234346,-0.790198425695107,-0.502557943166642,-0.272930616979499,0.0172321766942391,0.283530026454994,0.50656053887757,0.701651604767873,0.775089663882222,0.804581301888513,0.860460194953064,0.910615381957185,0.918570363261513,0.913913788839467,0.926331320631589,0.996082924995153,1.11841501554099,1.11278832144768,1.07126719951777,1.0642823378847,1.03508173577979,1.03653691528668,-0.0587039405736031,4,"prev_rew",3471.10741216888,206.160132533263,"risk",TRUE,"normals","not_trained"
"16","P004",4580449,"RESPONSE LOSE VAL2_7",2,"2_7",1044,4579234,TRUE,FALSE,TRUE,FALSE,FALSE,FALSE,FALSE,FALSE,FALSE,"unused",FALSE,-1,0,FALSE,3506.59445294222,258.180645143606,0.629605554577186,0.477812790206262,-1.5365114887951,-1.26759431592194,-0.998580131081665,-0.614412741262871,-0.352286406088533,-0.165926417239568,0.0801929433589858,0.231240576174104,0.350565295739031,0.42904797714393,0.522373489519103,0.680697019868665,0.697092042312952,0.662167734147606,0.649653190388358,0.61987051648069,0.56224540800787,0.535276081146854,0.576021107339757,0.650332274158239,0.598042823877349,0.657026099889931,0.727456788023376,0.589020710934634,0.323110909042384,0.0461417428977747,-0.154770041020084,-0.249550732902145,-0.334066391601038,-0.31662137873057,-0.304768412822354,-0.29291544691409,-0.281062481005827,-0.269209515097611,-0.225326188238814,-0.208223634906487,-0.179508092637203,-0.132942348416744,0.0278064811109699,0.0864987212221739,0.133452513311137,0.187973238835926,0.32776748346443,0.408093392244722,0.444084832048453,0.499866713145879,0.60687091288581,0.684286462652324,0.732501410313926,0.770724125361554,0.827961185965869,0.821558396135555,0.836401227105827,0.864437685605229,0.886556414109948,0.954561803065244,1.04400683675538,1.13888454060456,1.21251662365316,1.27780567752893,1.44233797377456,1.53314117500445,1.67865912569339,1.76024619004632,1.80273743164749,1.79090197165813,1.71135215861484,1.19786781661715,0.248993766158153,-0.413329385962101,-0.884897356399617,-1.35089370503962,-1.81689005367958,-2.28018743619484,-2.12634424892092,-1.85209141785584,-1.8706207035769,-1.80368244625999,-1.85112129818458,-1.79010077086235,-1.57521926367836,-1.27370606985088,-0.967924349469861,-0.737229891644334,-0.46899180254106,-0.198910486062394,-0.0154608562272076,0.0381867615934468,0.0576861669857642,0.131221238067239,0.154892158045974,0.185062879822148,0.260538190246143,0.27547803318354,0.239583605346935,0.290417876120937,0.397713111762246,0.47202427858073,0.493657947249819,0.523731657058865,-0.392833366181886,7,"prev_rew",3471.10741216888,206.160132533263,"risk",TRUE,"normals","not_trained"
"17","P004",4588557,"RESPONSE LOSE VAL2_9",2,"2_9",1489,4586898,TRUE,FALSE,TRUE,FALSE,FALSE,FALSE,FALSE,FALSE,FALSE,"unused",FALSE,-1,0,FALSE,3506.59445294222,258.180645143606,0.0354314283477304,-0.0379102173545981,-0.0148787844244523,-0.0262291845781901,-0.0171100596683496,0.0486640540430495,0.0194634519381363,0.0646710286188334,0.156832397388493,0.22939734879871,0.20514435701722,0.261993369753031,0.348916092297889,0.414496182075036,0.49239679167718,0.465330452849038,0.138206099700309,-0.279236394842687,-0.642255175828022,-0.91204545640531,-0.956670961283249,-0.96384984685057,-0.931738885731879,-0.832689667296276,-0.740916346395119,-0.708708373309302,-0.613927681427241,-0.537870299200491,-0.462589012710748,-0.348308915436368,-0.292333010404691,-0.270117269932847,-0.324637995457636,-0.411172670133989,-0.428634824216663,-0.435037614046975,-0.382748163766085,-0.378188601311164,-0.313869667106653,-0.147979203321267,-0.177567853294683,-0.247513481592499,-0.277975239270049,-0.300190979741895,-0.284863088935992,-0.160202711179137,-0.113151907123046,0.0119935304694378,0.0481789942074202,0.0550668438733635,-0.0732799886342787,0.0167471168586098,0.105513066778862,0.161585983777665,0.173421443767032,0.204562285214465,0.265097752701063,0.358908324911863,0.47512866152876,0.525186836565755,0.630153784996041,0.743851810467663,0.820297240562917,0.912555621299703,0.964068975843588,1.00481400203649,1.04701420773628,1.08397576721127,1.02557456300144,0.550797995887007,-0.116005863830341,-0.634974443810166,-1.14178945479214,-1.64860446577406,-2.15541947675603,-2.662234487738,-2.98483279751678,-2.59394193046804,-2.41961142554269,-2.25973570371912,-2.04689144784476,-1.8605314589958,-1.61683739757539,-1.29029511622942,-1.06319010118755,-0.853159192359854,-0.66291872482585,-0.53573603592372,-0.387501750155257,-0.382845175733211,-0.318914289397203,-0.287094364179889,-0.217342759816325,-0.179508092637203,-0.193380803936215,-0.165344345436813,-0.127606690224814,-0.110338560076394,-0.114122026794307,-0.0931674418950996,-0.0560118584858585,-0.0429152429238529,-0.830789849606727,9,"prev_rew",3471.10741216888,206.160132533263,"risk",TRUE,"normals","not_trained"
"18","P004",4616461,"RESPONSE LOSE VAL2_16",2,"2_16",621,4615669,TRUE,FALSE,FALSE,FALSE,FALSE,FALSE,FALSE,FALSE,FALSE,"unused",FALSE,-1,0,FALSE,3506.59445294222,258.180645143606,1.39189078397237,1.17946590839763,-0.411269682101115,-0.799271269666519,-1.03513732569064,-1.15677312545102,-1.27840892521135,-1.40004472497174,-1.52168052473212,-1.6433163244925,-1.59172553837854,-0.955312793743487,-0.655642827291403,-0.366935213124553,-0.104711865983089,0.158384588862509,0.439525269593533,0.697480090181456,0.913622752938089,1.10570644784749,1.22250885626714,1.3677357710547,1.41226426396551,1.45543458933656,1.48366507177022,1.39790649283087,1.27295507917264,1.15634669468724,1.07990126459198,1.01432117481483,1.02266420398767,0.997053044666412,0.891407012466245,0.631123904667299,0.204077225378834,-0.220738178665735,-0.574443810806977,-0.730439053945516,-0.784862767503178,-0.869651226771265,-0.800093646341955,-0.694156578240408,-0.569011140647922,-0.406419083744817,-0.231506507016715,-0.0319528906386208,0.157705505092626,0.309723257579003,0.426137618130152,0.499381653310249,0.634713347450961,0.752679899476126,0.813603414831228,0.861333302657197,0.909063190483169,0.89897394590207,1.04420086068963,1.03527575971404,1.09396799982524,1.17817438729058,1.26364193032854,1.28750687424153,1.39936167233776,1.4054734262667,1.45572562523794,1.50840312338734,1.55865532235858,1.57786369184952,1.50423160880092,1.02693273054121,0.218823044381979,-0.526422887079628,-1.15564250585859,-1.61353899069311,-1.86140456669993,-1.99644522493926,-2.04301096915972,-1.9797591665936,-1.88944102519933,-1.74887068483382,-1.57386109613859,-1.38332959270321,-1.16553772650544,-0.968603433239742,-0.713267935764222,-0.536415119693601,-0.336182419545623,-0.179217056735825,-0.0510642481624348,0.136556896259169,0.230173444535717,0.316019013544772,0.264488020461392,0.219389482024724,0.174290943588104,0.129192405151436,0.472315314482108,0.707375310828303,0.567872102101175,0.492978863479935,0.479979259885058,0.519851178373828,-0.395836694997495,16,"prev_lose",3471.10741216888,206.160132533263,"risk",TRUE,"normals","not_trained"
"19","P004",4655075,"RESPONSE LOSE VAL2_25",2,"2_25",1901,4653003,TRUE,FALSE,FALSE,FALSE,FALSE,FALSE,FALSE,FALSE,FALSE,"unused",FALSE,-1,0,FALSE,3506.59445294222,258.180645143606,0.960638748713635,0.801892430481958,0.822043455971185,0.764612371432617,0.733180494083809,0.771112173230057,0.758306593569431,0.56874520980531,0.254717472218584,-0.138957090378552,-0.483446585642828,-0.622367722567199,-0.732573317222288,-0.737617939512837,-0.692022314963637,-0.588607558007365,-0.553392213940644,-0.389247965563522,-0.378576649179668,-0.354032621496801,-0.357428040346209,-0.39099418097179,-0.350540190680265,-0.316197954317677,-0.322212696279487,-0.33918979052653,-0.413889005213515,-0.420097771109578,-0.376539397870022,-0.350540190680265,-0.27050531780135,-0.27050531780135,-0.228790171937189,-0.0568849661899913,0.0099562791597923,0.140049327075702,0.222606511099892,0.290902935956566,0.22891228896308,0.214554517828439,0.319715490192976,0.276448152854798,0.295365486444361,0.284694170060506,0.307006922499476,0.32776748346443,0.373169084079379,0.276157116953421,0.214360493894187,0.265097752701063,0.342222266566198,0.455726268103569,0.560499192599602,0.690786264449764,0.766552610775137,0.879862588378256,0.904988687863878,1.00791838498452,1.05613333264612,1.21261363562029,1.34697521008974,1.46144933129837,1.56369994464913,1.6416975662184,1.70688960812705,1.7885736844471,1.8741382394522,1.89936135090494,1.82689341146185,1.37675788399741,0.508015718384461,-0.269535198130091,-0.808727711416164,-1.16317601500323,-1.3039121181137,-1.43910386501891,-1.57429561192411,-1.70948735882936,-1.84467910573456,-1.97987085263977,-2.05375973207193,-1.62663560625511,-1.39332182531718,-1.19900685516389,-0.879352423483861,-0.649240037461089,-0.361211507064122,-0.111599715649032,0.170511084753254,0.34649079311974,0.482986630865962,0.554872498506298,0.561178276369486,0.615213942058644,0.631220916634425,0.648295022848596,0.672548014630085,0.661100602509222,0.591737046014161,0.642086256952534,0.665660164964142,0.654697812678908,-0.237836537871683,25,"prev_lose",3471.10741216888,206.160132533263,"risk",TRUE,"normals","not_trained"
"20","P004",4670180,"RESPONSE LOSE VAL2_29",2,"2_29",580,4669430,TRUE,FALSE,FALSE,FALSE,FALSE,FALSE,FALSE,FALSE,FALSE,"unused",FALSE,-1,0,FALSE,3506.59445294222,258.180645143606,0.786194472278631,0.636416879627839,-0.257020654370843,-0.797183287328174,-1.14535923734324,-1.37634473107014,-1.47781924868389,-1.48771446933074,-1.45337223296815,-1.35063655978176,-1.18940267041842,-1.00275164566808,-0.8148394653451,-0.497154869878937,-0.26467308987937,-0.198902264709269,-0.133131439539119,-0.0673606143689693,0.0728233223986647,0.627728485817892,0.795462176978672,0.786343052068832,0.755493246522779,0.787410183707218,0.781880501581039,0.789738470918242,0.816610785812132,0.846296447752674,0.921674746209543,0.959897461257171,0.963583916007959,0.935935505377059,0.863855613802472,0.738225116374359,0.44971152614176,0.252195161073309,-0.0260351606439384,-0.29766866859662,-0.416799364227296,-0.526810934948131,-0.518370893808174,-0.444544786825319,-0.355293777069437,-0.352286406088533,-0.291653926634809,-0.312220463665514,-0.257020654370843,-0.173687374609644,-0.0753172399439242,-0.00527459967898244,0.0544847720706083,0.131027214132988,0.218143960612098,0.300507120702036,0.475322685463012,0.58795357929625,0.713390052790112,0.794977117143043,0.918861399162891,1.06661062509572,1.157704862227,1.25006025493091,1.2944917358746,1.32117002683424,1.36695967531769,1.46600889375329,1.51732822436292,1.55807325055583,1.50947025502572,1.10531839997898,0.468822883665574,-0.112957883188795,-0.584727079322328,-0.892744726205944,-1.07550995654703,-1.24660983007397,-1.41770970360092,-1.58880957712787,-1.75990945065481,-1.45919295099571,-1.04417575563086,-1.00896041156414,-0.816197632884862,-0.698231080859699,-0.483446585642828,-0.227140968496047,0.00374751326373224,0.0925134631839822,0.209606907505015,0.326603339858919,0.488613324959269,0.543037038516931,0.579028478320661,0.643056376623792,0.662652793983236,0.612788642880495,0.569715329476569,0.486479061682498,0.442435628607313,0.468531847764194,0.460382842525615,0.396257932255358,-0.11702834364279,29,"prev_lose",3471.10741216888,206.160132533263,"risk",TRUE,"normals","not_trained"
"21","P004",4957090,"RESPONSE LOSE VAL3_17",3,"3_17",1114,4955798,TRUE,FALSE,TRUE,FALSE,FALSE,FALSE,FALSE,FALSE,FALSE,"unused",FALSE,-1,0,FALSE,3506.59445294222,258.180645143606,-0.999808734465972,-0.575127112488485,-2.56443022102029,-2.47955775905267,-2.41172372073664,-2.3438896824206,-2.27605564410457,-2.13652084144179,-1.79718264446255,-1.66204497425609,-1.56212264811635,-1.39031445433628,-1.1717464924015,-0.921067569348024,-0.671552789900061,-0.463656144349133,-0.307951937111971,-0.156807292329727,-0.0214755981890181,0.0901851759729592,0.198547543252655,0.301380228406169,0.261411297950275,0.217270852907965,-0.0844363648537648,-0.517885833972542,-0.882844854300396,-1.08754010493617,-1.13032238243871,-1.09093552378558,-0.990334113875957,-0.906709798213382,-0.805526316501008,-0.703566739051626,-0.711327696421703,-0.714917139205364,-0.690179087588243,-0.638471709110108,-0.523997587901479,-0.443962715022564,-0.379449756883801,-0.333563096433223,-0.332884012663341,-0.279818466645442,-0.296892572859611,-0.183582595256492,-0.131002109074224,-0.00886404246264182,0.0317839717631328,-0.0237068734329153,-0.0164309758984685,-0.0573700260256207,-0.0197293827807502,-0.0221546819588992,-0.0152668322929558,0.0281945289794734,0.0815511108987502,0.204562285214465,0.275672057117792,0.385489603904375,0.473479458087618,0.562827479810626,0.596490632403333,0.635974503023597,0.635974503023597,0.645578687769067,0.66284681791749,0.602117326496638,0.557588833585824,0.20708459635974,-0.536512131660727,-1.14710545275151,-1.6097555239752,-1.85354659736273,-2.05828041902158,-2.18567661217266,-2.24314354049023,-2.3006104688078,-2.35807739712537,-2.25013073976106,-1.60015133922973,-1.53321308191282,-1.50498259947916,-1.42727601381127,-1.32065986193984,-1.05397396431058,-0.832980703197653,-0.673299005308326,-0.550675878861117,-0.463074072546378,-0.41670235226017,-0.339771862329285,-0.31154137989563,-0.246834397822618,-0.246834397822618,-0.36868142853282,-0.650307169099476,-0.97995383339348,-1.19425326877472,-1.25575885593258,-1.32851783127705,-1.35112161961739,-0.934976660134708,17,"prev_rew",3471.10741216888,206.160132533263,"risk",TRUE,"normals","not_trained"
"22","P004",4974828,"RESPONSE LOSE VAL3_20",3,"3_20",792,4973857,TRUE,FALSE,FALSE,FALSE,FALSE,FALSE,FALSE,FALSE,FALSE,"unused",FALSE,-1,0,FALSE,3506.59445294222,258.180645143606,-0.49305818326285,-0.0532503626630016,1.67118920422469,1.43438299247023,0.703543338126828,-0.0142967126216971,-0.642934259597903,-0.936091628195533,-1.11786229631748,-1.37303947978529,-1.62821666325311,-1.88339384672093,-2.13857103018875,-2.39374821365656,-2.37670713912445,-1.61790452921378,-1.23451323513199,-0.944059405556875,-0.784086671766171,-0.527393006750886,-0.296504524991107,-0.0421391471868459,0.236188186497527,0.382676256857723,0.407511320441967,0.470472087106714,0.502777072159659,0.541193811141537,0.51044101756261,0.438070090086645,0.138109087733183,-0.311056320060001,-0.601898197503623,-0.883329914136026,-0.958029128823014,-0.943768369655498,-0.910784300832671,-0.831040463855134,-0.746154992619921,-0.676209364322107,-0.61033823864358,-0.510124876602466,-0.632942026983929,-0.614218717328619,-0.638374697142983,-0.603547400944764,-0.643128283532155,-0.601995209470748,-0.585018115223706,-0.575996002280991,-0.592779072593782,-0.586473294730596,-0.546407352307574,-0.469961922212321,-0.325996162997398,-0.187851121810034,-0.0181771913067341,0.124915460204054,0.200002722759545,0.317581226916205,0.415466301746297,0.523731657058865,0.602893422233647,0.729105991464518,0.801670942874735,0.870355415599912,0.899750041639077,0.975710411898703,1.03517874774691,0.675652397578115,0.107065258252876,-0.638956768945738,-1.14939493517568,-1.35539014617094,-1.41359732644651,-1.47180450672209,-1.53001168699766,-1.58821886727324,-1.64642604754881,-1.70127661376183,-1.57318201236871,-1.32580149619752,-1.14468015357336,-0.955797853579117,-0.699104188563832,-0.465402359757401,-0.273318664848002,-0.00110308509256564,0.206114476688479,0.315835011507937,0.380639005548077,0.472897386284863,0.544104170155317,0.583782064709833,0.636265538924977,0.574759951767118,0.346296769185488,0.140243351009954,-0.0958837769746262,-0.160590759047641,-0.156904304296853,-0.0892869632100626,-0.498402597241414,20,"prev_lose",3471.10741216888,206.160132533263,"risk",TRUE,"normals","not_trained"
"23","P004",4985179,"RESPONSE LOSE VAL3_22",3,"3_22",2747,4982253,TRUE,FALSE,TRUE,FALSE,FALSE,FALSE,FALSE,FALSE,FALSE,"unused",FALSE,-1,0,FALSE,3506.59445294222,258.180645143606,0.228343431414974,0.621927529487321,0.184189772118013,0.217658900776469,0.263836597128424,0.280231619572712,0.283821062356371,0.245113287473114,0.240553725018194,0.24976986189516,0.148392356248534,-0.00236424066520415,-0.0745411442069172,-0.175142554116534,-0.178537972965942,-0.206186383596841,-0.232573638655102,-0.266042767313556,-0.269632210097217,-0.267983006656075,-0.307951937111971,-0.368875452467072,-0.501199775626877,-0.615576884868383,-0.754109973924251,-0.907291870016138,-1.0099305312354,-1.05387695234346,-1.01400503385469,-0.971998852089152,-0.822406398780925,-0.697940044958322,-0.619360351586294,-0.547571495913087,-0.459484629762716,-0.430963111427684,-0.427761716512528,-0.399434222111748,-0.40826231112021,-0.381972068029076,-0.326675246767279,-0.264102527971038,-0.136337767266151,-0.00769989885713139,0.116281395129842,0.246762490914256,0.309119342022051,0.146289894908003,-0.0167351822987027,-0.17976025950541,-0.342785336712116,-0.505810413918772,-0.333881115795669,-0.0680413424094774,-0.0511612601295606,0.0434254078182482,0.190786585882578,0.271694566465626,0.439719293527787,0.625982270409624,0.706890250992674,0.828737281702876,0.783432693055053,0.737740056538727,0.751224719969236,0.711837861316098,0.71513626819838,0.692435467890906,0.627437449916514,0.275381021216414,-0.247125433723996,-0.852674132524222,-1.23024470857845,-1.47908040425653,-1.59840512382146,-1.60257663840788,-1.55416766681202,-1.41670170939454,-1.21908833235896,-1.07192117822889,-0.998333112550465,-1.13692933178194,-1.27231170381591,-1.40769407584992,-1.54307644788389,-1.67845881991785,-1.81384119195187,-1.72084233479734,-1.1313895140771,-0.851121941050208,-0.627121308956371,-0.430963111427684,-0.281758705987962,0.00918018342278534,0.170317060819,-0.00226722869807828,-0.353450549694046,-0.78146734865377,-1.07521958511117,-1.20861103990936,-1.38420270040735,-1.54524256583644,-0.625590136741901,22,"prev_rew",3471.10741216888,206.160132533263,"risk",TRUE,"normals","not_trained"
"24","P004",5029370,"RESPONSE LOSE VAL3_34",3,"3_34",591,5028600,TRUE,FALSE,FALSE,FALSE,FALSE,FALSE,FALSE,FALSE,FALSE,"unused",FALSE,-1,0,FALSE,3506.59445294222,258.180645143606,-0.21016032896117,0.230891161389853,1.42148040084248,1.52693240910839,1.63762306359911,1.74918682579396,1.78750655280872,1.4791055093153,0.71319602885586,-0.0871526999332913,-0.681059962678405,-1.12896421489895,-1.33435173539721,-1.34559664681002,-1.39739915352774,-1.44920166024551,-1.50100416696323,-1.55280667368099,-1.60460918039871,-1.34344448812183,-0.860726125795678,-0.661172509417582,-0.509639816766837,-0.265557707477926,-0.0161399399970887,0.25316528074457,0.472412326449234,0.684286462652324,0.888399641485341,1.00500802597074,1.07805803721659,1.06631958919435,1.09959469391855,1.01111977989968,0.640340041544266,0.26393360909555,-0.118972625150605,-0.350831226581643,-0.493826866125305,-0.515460534794393,-0.53040037773179,-0.60868903520244,-0.583853971618195,-0.606360747991417,-0.563093410653239,-0.481894394168812,-0.403508724731038,-0.356829494813162,-0.410396574396982,-0.369212248730282,-0.328027923063629,-0.286843597396929,-0.245659271730278,-0.0481978190960157,0.354154738522691,0.438070090086645,0.572043616687592,0.691368336252519,0.874623942153455,0.993366589915627,1.14169788765122,1.25500786525434,1.34746026992537,1.43244275312771,1.52101467911371,1.54235731188142,1.5220818107521,1.50054515405013,1.53449934254422,0.994433721554012,0.302835407913059,-0.324637995457636,-0.734707580499059,-0.926500239507077,-1.04951141382279,-1.08744309296904,-1.12120325752887,-1.01798252450686,-0.865382700217724,-0.60412947274752,-0.383912307371595,-0.327451342504288,-0.206671443432471,-0.038064644567555,0.0760214287725712,0.257336795330985,0.383937412430361,0.532850781968705,0.572140628654718,0.716785471639522,0.799536679597963,0.816513773845006,0.950390288478827,0.8591020274133,0.831259592848151,0.78110440584403,0.544880265892324,0.183025628512502,-0.0847274007551424,-0.227529016364552,-0.263520456168281,-0.253722247488559,0.139309610826366,34,"prev_lose",3471.10741216888,206.160132533263,"risk",TRUE,"normals","not_trained"
"25","P004",5324504,"RESPONSE LOSE VAL4_35",4,"4_35",1079,5323251,TRUE,FALSE,FALSE,FALSE,FALSE,FALSE,FALSE,TRUE,FALSE,"risk",FALSE,-1,0,FALSE,3506.59445294222,258.180645143606,0.887831428535045,0.53027552353796,-0.826868949268719,-0.60868903520244,-0.491692602848535,-0.451141600589885,-0.256050534699582,-0.0832722212482521,0.119579802012126,0.357744181306352,0.545656361629331,0.689622120844254,0.836013179237323,0.907413987042027,0.965136107481972,0.980658022222127,0.975904435832955,0.924197057354818,0.97648650763571,0.966397263054611,1.05458114117211,1.0713642114849,1.12045226685063,1.00287376269397,0.683316342981066,0.261120262048898,0.0172321766942391,-0.0700785937191228,-0.157874423968114,-0.205119251958454,-0.0876377597689206,-0.0481538891486565,0.0289706247164804,-0.0221546819588992,0.206502524556983,0.340670075092184,0.44631610729235,0.521888429683471,0.543910146221063,0.523343609190361,0.528388231480911,0.427301761735662,0.39257147750457,0.38636271160851,0.349110116232141,0.300313096767784,0.313409712329788,0.300522959390534,0.291613697103445,0.282704434816404,0.273795172529315,0.268237772698262,0.624624102869862,0.854736488892634,0.884616174767428,0.913913788839467,0.926525344565841,0.980852046156379,1.09028154507446,1.16061522124078,1.26519412180256,1.3957722295541,1.46746407326018,1.54400651532256,1.55070034105425,1.58397544577846,1.62345931639872,1.60172863576251,1.4137194434724,0.947964989300678,0.253068268777444,-0.449492397148743,-0.871009394311029,-1.16068712814914,-1.16301541536016,-1.17388075567827,-1.32394839335244,-1.28770135315627,-1.24122855453302,-1.19475575590983,-1.14828295728663,-1.10181015866338,-1.05533736004019,-0.669821097241381,-0.127509678257688,0.236770258300283,0.52576890836851,0.739001212111365,0.984247465005786,1.19524849350474,1.38374274563048,1.51480591321765,1.65004059539124,1.79856591706108,1.87772768223586,1.93263645562915,1.99278387524724,2.01480559178484,1.98502291787717,1.93593486251143,1.89150338156774,1.88519760370456,-0.0727342963191943,35,"prev_lose",3471.10741216888,206.160132533263,"risk",TRUE,"normals","trained"
"26","P004",5485499,"RESPONSE LOSE VAL5_1",5,"5_1",3105,5482211,TRUE,FALSE,TRUE,FALSE,FALSE,TRUE,FALSE,FALSE,FALSE,"learning",FALSE,-1,0,FALSE,3506.59445294222,258.180645143606,0.503925100820446,-16.8417985063561,-0.472581245324722,-0.497416308908966,-0.583368911782564,-0.652053384507743,-0.605681664221536,-0.534377868383956,-0.54960874722273,-0.508960732996956,-0.268371054524579,-0.143710676767724,-0.0347662376852732,0.0171351647271133,0.0604025020652908,0.122393149058779,0.129475022658974,0.158578612796761,0.176331802780811,0.231531612075481,0.289544768416804,0.457666507446088,0.572625688490347,0.599789039285617,0.540999787207285,0.334655333130373,0.340961110993561,0.370840796868356,0.377825658501425,0.405765105033702,0.415951361581927,0.563021503744877,0.5373133324565,0.528388231480911,0.562827479810626,0.597072704206088,0.643444424492298,0.702524712472006,0.755784282424156,0.702136664603502,0.613661750584627,0.579416526189165,0.452621885155538,0.437779054185267,0.453009933024042,0.545074289826576,0.681230792096291,0.631460350425642,0.526192045671916,0.42092374091824,0.315655436164514,0.352337105793921,0.738807188177114,0.810207995981818,0.973576148621932,1.08717716212643,1.24899312329252,1.33814712108128,1.46086725949562,1.5202385833767,1.61007166493534,1.68011430520028,1.77993961937289,1.83979600308961,1.89489880041715,1.95708347134489,2.00267909589409,2.10172831432969,2.09299723728836,1.7549105318544,1.00500802597074,0.383549364561855,-0.022251693926025,-0.362957722472388,-0.519535037413684,-0.606166724057165,-0.509736828733963,-0.397882030637734,-0.190470444922435,-0.0975111527231648,-0.00434085949539457,0.102199068687597,0.20873899687054,0.315278925053534,0.434431101905508,0.938942876357963,1.23308316068387,1.38364573366336,1.44495729688696,1.58106508676468,1.65692844505718,1.7254188938481,1.81534898737387,1.85871333667917,1.88626473534294,1.88451851993467,1.67109219225757,1.47522503063026,1.28857400587992,1.23337419658525,1.13413095421539,1.04080544184022,0.670888705775703,1,"prev_rew",3471.10741216888,206.160132533263,"risk",TRUE,"normals","not_trained"
"27","P004",5533001,"RESPONSE LOSE VAL5_9",5,"5_9",1394,5531428,TRUE,FALSE,TRUE,TRUE,FALSE,FALSE,FALSE,TRUE,FALSE,"risk",FALSE,-1,0,FALSE,3506.59445294222,258.180645143606,-1.12187718798203,-0.796198795513653,-1.68567799350215,-1.71871074216509,-1.75174349082809,-1.71710813228524,-1.13953851931568,-0.976946462412576,-0.893904218552754,-0.808630699449038,-0.646911750250068,-0.477528855648145,-0.247707505526751,-0.0558178345516068,-0.0128415331148069,0.0271273973410866,0.0794168476219788,-0.0581461217626299,-0.508378661194198,-1.01371399795331,-1.49780371391184,-1.71326729289859,-1.82512209099482,-1.8332710962334,-1.80562268560251,-1.74110972746374,-1.63944118591574,-1.52739236388526,-1.35568118207231,-1.28544451787312,-1.18251482075248,-1.08715205706766,-1.03457157088539,-0.908553025588774,-0.970640684549388,-0.992468377152728,-1.07900305182908,-1.10422616328183,-1.1138303480273,-1.20880506384361,-1.15001581176528,-1.05465304808047,-0.89545641002677,-0.881098638892129,-0.777683881935857,-0.79563109585416,-0.770602008335664,-0.644647022603732,-0.68621163265683,-0.67227313163299,-0.658334630609149,-0.64439612958526,-0.630457628561419,-0.317227173233297,0.0357614624152979,0.156735385421367,0.266649944175077,0.310887401184513,0.419637816332712,0.434577659270109,0.474255553824627,0.551962139492519,0.58601333995373,0.596975692238962,0.588341627164753,0.601244218792505,0.570491425213576,0.518007950998434,0.342028242631946,-0.00585667148173766,-0.645553582710303,-1.11984508998911,-1.48325191884295,-1.70084976110647,-1.75168403188047,-1.72752805206611,-1.62779974986063,-1.43396983954296,-1.28029975419715,-1.27693250011238,-1.26910895437645,-1.26128540864047,-1.25346186290448,-1.24563831716855,-1.1835037169335,-0.863151424973827,-0.800481694210458,-0.751684674746102,-0.650889240902231,-0.560377075573713,-0.438821080764888,-0.247901529461003,-0.0914212264868318,-0.00808794672563487,-0.0401989078443263,-0.357428040346209,-0.720834869200047,-1.12100923359462,-1.36295707960676,-1.52778041175376,-1.62411329510984,-1.6856188822677,-0.721942422491402,9,"prev_rew",3471.10741216888,206.160132533263,"risk",TRUE,"normals","trained"
"28","P004",5539088,"RESPONSE LOSE VAL5_10",5,"5_10",3600,5535310,TRUE,FALSE,FALSE,TRUE,TRUE,FALSE,FALSE,TRUE,FALSE,"risk",FALSE,-1,0,FALSE,3506.59445294222,258.180645143606,-1.00066802490464,-0.770443261480352,-1.09239070329246,-0.946678728669276,-0.81794384829313,-0.761870931294327,-0.622173698632947,-0.663112748760101,-0.757214356872281,-0.814354405509471,-0.863345448908079,-0.936298448186799,-1.08656998526491,-1.20376044155306,-1.29757101376387,-1.43202960020044,-1.49537841473369,-1.55290651123939,-1.54242921878978,-1.5290415673264,-1.49023678047602,-1.41253019480812,-1.29795906163237,-1.26254969363139,-1.31755547899181,-1.35927062485597,-1.33152520225795,-1.26943754329734,-1.20376044155306,-1.18125366517984,-1.15506043405583,-1.1216883173645,-1.14652338094875,-1.13216560981411,-1.09122655968695,-1.04145942055134,-0.967051241765728,-0.876830112338586,-0.958320164724391,-0.931156813929124,-0.757408380806532,-0.64371035533491,-0.593652180297917,-0.579585445064653,-0.516042606597151,-0.436492793553865,-0.3895390014649,-0.259992550826435,-0.176617642795772,-0.119605012861692,-0.0625923829275629,-0.00557975299348012,0.0523345814559472,0.216203721269578,0.281589787112474,0.221248343560128,0.156735385421367,0.138788171503064,0.21212921865029,0.289350744482552,0.378892790139809,0.482695594964584,0.706211167222791,0.810887079751701,0.91769725555738,1.01674647399298,1.07854309705222,1.11608672832996,1.10211700506383,0.818397422873353,0.140057411406313,-0.451432636491262,-0.861599233499811,-1.14244887832946,-1.49360527977434,-1.59391082858002,-1.64660711962357,-1.69930341066712,-1.75199970171067,-1.80469599275422,-1.85739228379777,-1.91008857484132,-1.60820333250118,-1.18367896435799,-0.941925142280104,-0.750520531140589,-0.386919678352499,-0.0489299848856634,0.216785793072336,0.479494200049429,0.627243425982262,0.714069136559995,0.722606189667078,0.743948822434789,0.742881690796405,0.68438347461945,0.495986234460842,0.249381814026657,0.0682604714024928,-0.0952046932047451,-0.228693159970063,-0.221805310304119,-0.541277844545788,10,"prev_lose",3471.10741216888,206.160132533263,"risk",TRUE,"normals","trained"
"29","P004",5542654,"RESPONSE REW INV5_11",5,"5_11",1068,5541407,TRUE,TRUE,FALSE,FALSE,TRUE,FALSE,FALSE,TRUE,FALSE,"risk",FALSE,-1,0,FALSE,3506.59445294222,258.180645143606,-0.699297245601393,-0.165037140874264,-1.2382967018499,-1.55809842918685,-1.61077364171397,-1.66346993275752,-1.71616622380107,-1.76886251484463,-1.82155880588818,-1.87425509693173,-1.8938169759992,-1.42077621201383,-1.10577835475585,-0.87556895676595,-0.655642827291403,-0.276423047796035,0.0460447309306488,0.309044173809121,0.53537309311398,0.664010961523,0.711643837381846,0.728329895727511,0.760052808977699,0.723382285404085,0.644511556130683,0.406832236672086,0.192047741455215,0.00888914752140774,-0.142643545129339,-0.228693159970063,-0.240043560123801,-0.237618260945652,-0.219380011125971,-0.132845336449618,-0.0987941359884067,-0.215693556375185,-0.242080811433446,-0.28204974188934,-0.428149764381031,-0.547862531814465,-0.758184476543539,-0.903023343462595,-1.06755563970822,-1.18105964124559,-1.16786601371646,-1.12324050883852,-1.1578098673359,-1.06274498745604,-0.960026434028535,-0.857307880601078,-0.75458932717357,-0.527000393613345,-0.253334199620056,-0.160978806916144,-0.117711469577967,-0.0197293827807502,0.0276124571767182,0.186906107197539,0.254426436317206,0.327864495431556,0.416727457318934,0.448935430404751,0.534402973442721,0.610654379603723,0.663816937588748,0.654115740876153,0.689331084942874,0.759761773076319,0.736090853097587,0.500157749047256,-0.0613475166777857,-0.764975314242357,-1.29718296589536,-1.58676368776635,-1.71637167584662,-1.76652686285074,-1.75294518745311,-1.56813739007816,-1.45230510132977,-1.32929392701405,-1.05969767037102,-0.9669542297986,-0.771669139974049,-0.566197793601269,-0.372076847382228,-0.208320646873613,-0.0478628532472789,0.0378957256920692,0.1321913577385,0.19602523210738,0.237449342070164,0.296529630049871,0.356483025733714,0.372490000309497,0.417309529121689,0.334461309196121,0.159451720500894,-0.03893775227169,-0.184164667059249,-0.240431607992304,-0.292818070240322,-0.3514132983844,-0.503851436061655,11,"prev_lose",3471.10741216888,206.160132533263,"risk",TRUE,"normals","trained"
"30","P004",5553713,"RESPONSE LOSE VAL5_14",5,"5_14",1781,5551753,TRUE,FALSE,TRUE,FALSE,FALSE,FALSE,FALSE,TRUE,FALSE,"risk",FALSE,-1,0,FALSE,3506.59445294222,258.180645143606,-0.905842491889347,-0.501356626751306,-0.347920867567865,-0.190276420988183,0.0546787960048601,0.170123036884748,0.233568863385127,0.283238990553616,0.287798553008536,0.235703126661896,0.0877598767948102,-0.170874027562992,-0.388471869826515,-0.505177266279042,-0.570466320154812,-0.59714461111445,-0.629643620101645,-0.609077083070943,-0.646232666480185,-0.644098403203413,-0.605584652254408,-0.592779072593782,-0.591323893086894,-0.565906757699892,-0.589771701612878,-0.607621903564053,-0.657098006798293,-0.717245426416387,-0.713461959698474,-0.632845015016804,-0.538452371003246,-0.450947576655633,-0.367129237058804,-0.269535198130091,-0.252073044047419,-0.264393563872416,-0.264490575839542,-0.0587281935653851,0.0368285940536824,0.0317839717631328,-0.038064644567555,-0.155740160691343,-0.287288388114141,-0.254110295357065,-0.162142950521657,-0.0615415406120375,-0.114172300202375,-0.173335853514177,-0.222430978577928,-0.271526103641679,-0.320621228705429,-0.188582442792988,0.197383399647144,0.187682202934548,0.267620063846338,0.348916092297889,0.442435628607313,0.67507032577536,0.810596043850321,0.918958411130017,1.05137974625695,1.11928812324512,1.17254769319727,1.1801146266331,1.15673474255574,1.17739829155357,1.15964510156952,1.11152716587504,1.03566380758254,0.558849989158463,-0.174657494280905,-0.886240273149804,-1.3216299816111,-1.60286767430925,-1.69240971996651,-1.75236311565035,-1.74515400907758,-1.84308174885657,-1.82847916218185,-1.81387657550712,-1.79927398883239,-1.78467140215767,-1.77006881548294,-1.75546622880826,-1.65951377457981,-1.20143215434204,-0.915052827386214,-0.699492236432335,-0.447067097970594,-0.182418451650981,0.0131576740749504,0.228524241094575,0.366572270314813,0.302738395945933,0.21018897930777,-0.0762873596151829,-0.566973889338279,-0.966760205864349,-1.23713255824439,-1.47005829131382,-1.54097403928289,-1.53059375880042,-0.669946029194538,14,"prev_rew",3471.10741216888,206.160132533263,"risk",TRUE,"normals","trained"
"31","P004",5566684,"RESPONSE REW INV5_17",5,"5_17",1775,5564731,TRUE,TRUE,FALSE,FALSE,FALSE,FALSE,FALSE,TRUE,FALSE,"risk",FALSE,-1,0,FALSE,3506.59445294222,258.180645143606,-0.429968174741577,-0.108395004085445,-0.00566264754748592,0.0997893607184291,0.199226627022536,0.325633220187658,0.443308736311446,0.539738631634649,0.693308575595039,0.718046627212158,0.562924491777751,0.24521029944024,-0.0708546894561298,-0.423881237827491,-0.509348780865459,-0.544952172800684,-0.544079065096551,-0.487133040393615,-0.488103160064874,-0.41330693341076,-0.267497946820446,-0.143128604964969,-0.0868616640319137,-0.0142967126216971,0.241038784853825,0.199032603088284,0.110557689069412,0.0381867615934468,0.00636683637613292,-0.0113863536079166,-0.0128415331148069,-0.0274903401508264,-0.0743471202726633,-0.142740557096465,-0.111696727616158,-0.0715337732260109,-0.0139086647531937,0.0865957331892998,0.136944944127672,0.184674831953642,0.114341155787323,0.0553578797747411,-0.100637363363798,-0.145068844307488,-0.12149493629588,-0.294885956907988,-0.422191187242303,-0.531967886884842,-0.641744586527382,-0.75152128616987,-0.86129798581241,-0.528557150356399,-0.289422651390912,-0.294370261714336,-0.256244558633834,-0.158359483803743,-0.0573700260256207,-0.0148787844244523,0.110169641200908,0.253553328613073,0.33116290231384,0.329610710839823,0.31845433462034,0.379959921778196,0.422645187313616,0.460867902361244,0.480949379556319,0.485508942011237,0.51664978345867,0.184286784085139,-0.28515412483737,-0.788355198319714,-1.01681838090134,-1.16059011618201,-1.21501382973968,-1.27176583050836,-1.21093932712038,-1.27445168448641,-1.31864547145631,-1.36187587976773,-1.4051062880791,-1.44833669639052,-1.49156710470195,-1.50012643246012,-1.1186809463836,-0.765072326209483,-0.586279270796344,-0.392255336544429,-0.188045145744286,-0.0457285899705075,0.182055508841241,0.408481440113228,0.544589229990947,0.663816937588748,0.695636862806062,0.51044101756261,0.208636787833754,-0.0756082758453018,-0.255274438962575,-0.335115287907239,-0.378867685081046,-0.350831226581643,-0.640965725098306,17,"prev_lose",3471.10741216888,206.160132533263,"risk",TRUE,"normals","trained"
"32","P019",3870094,"RESPONSE LOSE VAL1_30",1,"1_30",3406,3866511,TRUE,FALSE,FALSE,FALSE,FALSE,FALSE,FALSE,FALSE,FALSE,"unused",FALSE,-1,0,FALSE,6589.26859339399,854.167651095429,1.20408936596179,1.18124345943138,-5.42842603778513,-6.07716536675939,-6.27328126609525,-6.29210942279555,-6.10385296000152,-5.6004633624624,-5.35303627921157,-5.18534016353427,-4.63897216030061,-4.32436621394312,-4.4077121876031,-4.57038746149366,-4.64298883373,-4.73582419836693,-4.78697050948015,-4.92402141522787,-4.78081094077617,-4.83347957111913,-4.67467034540437,-4.75686152545339,-4.93866620655145,-5.10400252658899,-5.30433411388014,-5.9058668230879,-6.88372596947448,-7.83326039555269,-7.34304692138821,-6.8443051888174,-6.58371632745417,-6.75763927627547,-6.32782232415973,-5.90617029958405,-5.86285255423773,-5.82609999235875,-5.82951416477373,-5.39049175894069,-5.2087372862605,-4.9075871958915,-4.61657920593172,-4.45882435699217,-4.16132696717532,-3.70188194400404,-2.88809352978456,-2.07430511556508,-1.26051670134559,-0.446728287126109,0.3670601270934,1.04264323263369,1.16512094517736,1.21748832501312,1.25449192898144,1.30285444913317,1.28066380515394,1.23348861404902,1.27357436702383,1.30089746410202,1.27573008973937,1.2286345937797,1.22268100687793,1.28660410159215,1.27358619029643,1.19023833382078,1.18156106400284,1.14669445582001,0.469025482932003,-1.72961304934578,-3.83355510156501,-4.47032208468382,-4.26913695428892,-3.88915695813134,-2.56312350343787,-0.791259471106428,0.21854848972465,0.583173431282167,0.637076871423089,0.663401236755674,0.695929556258216,0.728457875760759,0.760986195263301,0.793514514765844,0.826042834268387,0.855535840606628,0.858900655593879,0.886664208694319,0.912170935961117,0.923036874394592,0.946367052563687,0.925425958278125,0.936522018626833,0.951182876644131,0.907953428860253,0.916739901987058,0.997324412664324,0.992454196131182,0.963433730603791,0.961224560217622,0.970161658598031,0.9597183076816,0.925024290935186,0.956103301595142,-0.324034578553757,30,"prev_lose",6863.34621403959,398.33957829138,"risk",TRUE,"normals","not_trained"
"33","P019",4128243,"RESPONSE REW INV4_6",4,"4_6",2425,4125636,TRUE,TRUE,FALSE,TRUE,FALSE,FALSE,FALSE,TRUE,FALSE,"risk",FALSE,-1,0,FALSE,6589.26859339399,854.167651095429,0.623783625247569,0.666902814678593,-6.93093622753213,-6.58806294191527,-6.5204322030478,-6.15240450007935,-6.18274756103529,-6.1700853503889,-6.23504799631391,-6.15762617553756,-5.96994710954901,-6.06428872672196,-5.98736943054902,-6.0517366222551,-6.14376865220614,-6.03049846149716,-5.79228462292502,-5.6262202808284,-5.61808651713388,-5.43658308654302,-5.33812437910494,-5.01237216398088,-4.92536097581658,-5.00127610363217,-4.99766109754572,-5.0286898997878,-5.13051257122301,-5.78104901270901,-7.33153811831026,-7.98546362800232,-7.36232695384931,-7.07684188985496,-6.50225675577978,-6.11826277592948,-5.94479269219741,-5.80968183971609,-5.83363125503887,-5.77107156637601,-5.81093705016278,-5.50913425036149,-5.34831668793203,-5.2340423288657,-5.03792824867542,-5.01235609728716,-4.53500659359082,-4.14171170888338,-3.37754408290403,-2.61240808530967,-1.84727208771534,-1.08213609012101,-0.317000092526651,0.356434878760346,0.455525375456602,0.497901280136735,0.555138876505634,0.606301254312572,0.60495255232917,0.598164820269683,0.63333125391807,0.631935630099382,0.643598936156962,0.72444883418583,0.727333209983706,0.712738535789951,0.680634816965343,0.662484473906256,0.595154985545998,0.538118222848567,0.274695392557565,-0.208551897517943,-0.379434337626966,-0.22390434920417,-0.0613922526716812,-0.0637333213813971,-0.0595372293404825,-0.0418615267908114,-0.0386049000583279,-0.0650062657118977,-0.0236637646704033,0.0297133622357934,0.0510909908211488,0.1207356451164,0.218340809450736,0.276367045358816,0.368378257185399,0.350300007816207,0.340963393882205,0.433333906816561,0.422968150727745,0.374063847610092,0.325159544492438,0.276255241374786,0.24727410963099,0.325191610991416,0.369172996812724,0.351305369377611,0.331391396986251,0.312280759280747,0.269955063018482,0.333217669531477,0.108384374321008,-1.64877217789083,0.185016496275326,6,"prev_lose",6863.34621403959,398.33957829138,"risk",TRUE,"normals","trained"
"34","P019",4147652,"RESPONSE LOSE VAL4_10",4,"4_10",3491,4143978,TRUE,FALSE,FALSE,FALSE,FALSE,FALSE,FALSE,TRUE,FALSE,"risk",FALSE,-1,0,FALSE,6589.26859339399,854.167651095429,0.511181656870729,0.551920167877862,-4.49361879057432,-4.44521787575009,-4.47217979614492,-4.45972810851379,-4.34083457500365,-4.28686052579613,-4.37116045939559,-4.27744644744599,-3.79184242120282,-3.17659911892546,-2.5613558166481,-1.94611251437073,-1.3308692120934,-1.00255013825461,-0.970294222472066,-0.93003275531419,-0.908541657809646,-1.04738198423602,-1.09807693786887,-1.14909516892773,-1.70752193843206,-4.55457180986541,-4.78553053205571,-4.95167018677913,-4.96256541345636,-4.78658490883093,-4.59760042397782,-4.37068404356538,-3.89514897618704,-3.31020680454303,-2.72526463289899,-2.14032246125495,-1.55538028961091,-0.970438117966874,-0.392970089875908,-0.123391277449867,-0.0973851708437794,-0.0765293664988426,-0.0556735621539036,-0.0348177578089668,-0.0139619534640026,0.00113733990684122,0.0832801653872799,0.0335431129235441,0.0860501470218758,0.169623284731827,0.253196422441807,0.336769560151783,0.420342697861737,0.503915835571714,0.587488973281668,0.662120044550071,0.709949808658254,0.778355639976548,0.872004201667152,0.947226208397053,0.977281457170757,1.04230067679506,1.08526991399589,1.07060861938366,1.027750713892,1.02132403640497,0.979148965396305,0.838213936442354,0.628723743044905,0.291720821375082,0.156001916842367,0.0123332512577783,-0.13133541432681,-0.275004079911396,-0.365182027925551,-0.285957104011625,-0.258659700097405,-0.227847230890588,-0.0959571098032714,0.0426550867633242,0.179565433583187,0.225949343242031,0.305927435936141,0.38643859247098,0.429969290762066,0.513365472839911,0.526821328828389,0.475331059312924,0.54788837110093,0.642596137727607,0.712158608718355,0.73615205464064,0.722051740864207,0.760210138443473,0.780833748166711,0.786072494487002,0.788695545074497,0.558072676490218,0.29823868608907,0.172938549100523,0.0592943922446698,-0.83603596576585,-4.3207009994388,-5.2977675700862,0.266720740059503,10,"prev_lose",6863.34621403959,398.33957829138,"risk",TRUE,"normals","trained"
"35","P019",4189944,"RESPONSE REW INV4_20",4,"4_20",1668,4188092,TRUE,TRUE,FALSE,TRUE,FALSE,FALSE,FALSE,TRUE,FALSE,"risk",FALSE,-1,0,FALSE,6589.26859339399,854.167651095429,0.297750009455919,0.351937971111918,0.346271858177015,0.361033133030048,0.385057860979625,0.398990696937845,0.460747050914817,0.479487342883845,0.54947787739108,0.535356759865858,0.506924736995874,0.495605751271834,0.488763348084857,0.490570851128086,0.475407908932115,0.442571603646798,0.450404116834121,0.43483950729521,0.407024043796637,0.394722981419111,0.376045449972418,0.343460186776438,0.257854834312426,0.231796665439216,0.204382869283584,0.199060776989634,0.178073658321036,0.155479870280681,0.147019751870014,0.147111800636114,0.178559006360413,0.190274303862829,0.198709318064561,0.177245219426223,0.199060776989634,0.215629554885894,0.225018529027107,0.21331996766399,0.197956191796549,0.220700605090508,0.276030281580445,0.250160394274237,0.281641072277132,0.301837408364317,0.288632594465175,0.339755334047493,0.324746980927565,0.2986240696208,0.291494474283621,0.334673713649633,0.32131827449689,0.335878715678453,0.342606643672691,0.314489929666916,0.347727902295171,0.343460186776438,0.378706496119392,0.383877963159741,0.421082400799526,0.51921475352147,0.549386426344245,0.604572650211711,0.581740209172129,0.558813219813216,0.58130676006973,0.573656484843574,0.592142480473951,0.592594356234756,0.63933839326936,0.544544900335602,0.313937637070373,0.0108796268224073,-0.261852499033617,-0.428494237935706,-0.548492356638927,-0.602667239517912,-0.599855568117335,-0.611754963151922,-0.590014718215313,-0.540057342437193,-0.482819746068292,-0.398369187215232,-0.339123254131632,-0.286803440165431,-0.176751873296591,-0.101838271290034,-0.00804894671362374,0.0481342728800603,0.0874474640702784,0.160350086813825,0.190675971205769,0.192684307920467,0.203579534597704,0.233051875885902,0.247009816053054,0.257955251148161,0.290339680672669,0.308314294269218,0.20624058074468,0.188416592401732,0.131681080211507,0.115765011747523,-0.0408308595462507,20,"prev_lose",6863.34621403959,398.33957829138,"risk",TRUE,"normals","trained"
"36","P019",4193824,"RESPONSE LOSE VAL4_21",4,"4_21",1300,4192341,TRUE,FALSE,TRUE,FALSE,TRUE,FALSE,FALSE,TRUE,FALSE,"risk",FALSE,-1,0,FALSE,6589.26859339399,854.167651095429,-0.00337122358319266,0.0696381832436781,-0.516409177621621,-0.42523069077432,-0.366988926048071,-0.309199037082628,-0.219344466938036,-0.133551493544112,-0.0349104502727148,0.0267454868685228,0.0604353352575863,0.139664218652431,0.18530367049395,0.192533682666864,0.191228263802311,0.216934973750448,0.253126114229627,0.236374760268411,0.292699476312439,0.307109292240401,0.246005647695706,0.200968696868596,0.145187144617853,0.117823556880088,0.11466042655444,0.203629743015572,0.181437622318156,0.167329056897401,0.205437246058801,0.229286244545843,0.236767298808093,0.219796853568892,0.266239640096289,0.327092242551648,0.330506414966635,0.328648703505539,0.30058219791763,0.255787921110224,0.224625229753805,0.237520425076105,0.228174486721626,0.209887863671201,0.230970354019743,0.258731354149765,0.256932584952655,0.269220434588625,0.251528573661125,0.246457523456513,0.245754605606367,0.242189807937778,0.249538311976859,0.264815729365569,0.231445206514143,0.257905042730292,0.307184604867201,0.329577559236087,0.371349871414462,0.430899237979961,0.448445988537289,0.472445612277934,0.520294234505621,0.507089420606479,0.523457364831269,0.518737773551728,0.532896547390351,0.553833457641081,0.538720723862976,0.54715573806471,0.526570286739053,0.45165019847755,0.284072757242495,0.0699749346524035,-0.1293524842814,-0.269383761713736,-0.370001431120118,-0.427088402235416,-0.418753804869419,-0.407055243506302,-0.337767626849211,-0.305232572071099,-0.226555981272794,-0.178155066448567,-0.184832786024938,-0.137144287940712,-0.0674862145788359,-0.0115635359643471,0.0519556913510758,0.128211120665563,0.16361363397521,0.190575554370034,0.224551204522351,0.240598587309969,0.249068361185621,0.282005083306672,0.281101331785057,0.26031504678793,0.243595643638068,0.253260764077552,0.238675218687057,0.201069113704331,0.19755452445361,0.103263115698525,0.0448623576490312,21,"prev_rew",6863.34621403959,398.33957829138,"risk",TRUE,"normals","trained"
"37","P019",4205121,"RESPONSE LOSE VAL4_24",4,"4_24",1419,4203519,TRUE,FALSE,FALSE,FALSE,FALSE,FALSE,FALSE,TRUE,FALSE,"risk",FALSE,-1,0,FALSE,6589.26859339399,854.167651095429,-0.202852381470936,-0.125321649503375,-0.643606625575732,-0.576554785474965,-0.484152200234778,-0.205619071022067,-0.157218156197837,-0.14868272516037,-0.111377870684851,-0.0847674092150983,-0.0522323544369864,-0.00448414904503415,0.0342265411307727,0.0581257480356831,0.0594079937843005,0.0839058395176241,0.0703263935774742,0.0547417006714166,0.050112484544037,0.0526028220702633,0.0140427571480553,0.0269463205399924,0.0228205403563887,0.0754814463273627,0.109463855305157,0.109488959514091,0.134593168447819,0.159948419470886,0.174810111159651,0.162308215110655,0.197002231857067,0.164216134989619,0.16793155791181,0.145187144617853,0.120986687205739,0.0841839169088933,0.100953528476624,0.0876985061596143,0.0788116161970746,0.118024390551558,0.121516157794161,0.132205986398302,0.166776764300858,0.196952023439201,0.200723930831492,0.237388627979204,0.233001667468034,0.231997499110685,0.259662337355653,0.279344037159696,0.280549039188516,0.339794972272114,0.376145866808153,0.402505286188568,0.401450909413351,0.417316769459467,0.44588535922605,0.447140569672736,0.400045073713061,0.413049053940733,0.428714080315379,0.452763912473891,0.422287402828346,0.413601346537276,0.421684901813935,0.458688505782252,0.48951647435287,0.509549633081984,0.546000944453758,0.357721272108071,0.0205679568135508,-0.322755309906842,-0.569027599546715,-0.752840617359474,-0.881876251278836,-0.94498823253823,-0.949055114385494,-0.918377771068477,-0.845374731489196,-0.746213106200969,-0.616876221774402,-0.490702467673483,-0.361767250589856,-0.275710022365034,-0.199945519803044,-0.127494772820303,-0.0325888130305219,0.0165411280211407,0.0793639087936173,0.102710823101985,0.155228828191345,0.160099044724487,0.159898211053017,0.161153421499704,0.193839101531419,0.191680139563117,0.185554712583288,0.170944062983857,0.128015865707183,0.144032351006902,0.111045420467982,0.0867947546380009,-0.223474439626179,24,"prev_lose",6863.34621403959,398.33957829138,"risk",TRUE,"normals","trained"
"38","P019",4222223,"RESPONSE REW INV4_28",4,"4_28",3477,4218563,TRUE,TRUE,FALSE,TRUE,FALSE,FALSE,FALSE,TRUE,FALSE,"risk",FALSE,-1,0,FALSE,6589.26859339399,854.167651095429,-0.100009917574935,-0.0211424879029081,-0.0262411967987737,-0.0203724128473338,-0.00737023292148767,0.0056319470043311,0.0186341269301773,0.0540254605876821,0.092116846931951,0.0792132835400139,0.0741924417532683,0.0873219430256093,0.0847613137143679,0.0843345421624944,0.0625942972258861,0.0631967982402973,0.0686695157878485,0.0441678078685292,0.0325194549232807,0.0209213103958986,-0.0117643696358167,-0.0248185582813549,-0.0221073037165125,-0.0141241652755862,-0.0139735400219851,0.0199673504564166,0.0440171826149281,0.0790124498685442,0.134091084269145,0.136501088326783,0.142777140560215,0.192834933174068,0.199060776989634,0.199813903257644,0.226424364727397,0.218742476793675,0.219646228315291,0.236365631465154,0.240733763819622,0.262167528205506,0.279876455590824,0.269804437764879,0.269754229347013,0.286272798825406,0.296615732906101,0.285770714646732,0.305452414450775,0.278339868802348,0.279344037159696,0.289235095479586,0.286925508257683,0.327293076223118,0.31283305187729,0.357518543779327,0.395275274015654,0.400948825234677,0.42474761530385,0.44764265385141,0.467223936819719,0.430571791776474,0.44232056155746,0.450504533669856,0.460657791505264,0.49437553345983,0.492177520499843,0.505733793324058,0.488813556502726,0.46837873043067,0.445634317136711,0.288481969211574,-0.0156053136026765,-0.283391910298756,-0.485380375379533,-0.621846855143279,-0.72507536227877,-0.77819586838254,-0.78391962801943,-0.767501475376772,-0.715937430226894,-0.68937717717501,-0.592776181198022,-0.503857073154757,-0.398067936708027,-0.30463007105669,-0.192665299212261,-0.0870769964370014,-0.0137727063505154,0.0587784574679606,0.102660614684116,0.145086727782119,0.176667822620748,0.162079487873706,0.136955753444136,0.187161381955045,0.213972677096268,0.192985558427672,0.192885141591937,0.14699464766108,0.0547115756206969,-0.0193900837951001,-0.0882616168308482,-0.145429617372993,-0.179210489232489,28,"prev_lose",6863.34621403959,398.33957829138,"risk",TRUE,"normals","trained"
"39","P019",4225957,"RESPONSE REW INV4_29",4,"4_29",1163,4224611,TRUE,TRUE,TRUE,TRUE,TRUE,FALSE,FALSE,TRUE,FALSE,"risk",FALSE,-1,0,FALSE,6589.26859339399,854.167651095429,-0.0152894676251567,0.0679482678803911,-0.776488782175046,-0.730096204065515,-0.70554428772833,-0.621595813053943,-0.537245671036616,-0.432460702947234,-0.333098243987538,-0.228413692733892,-0.122875598376498,-0.033153155647352,0.035682585248931,0.0950791435861317,0.130777328689892,0.166023638032846,0.178625950917579,0.129446805616405,0.16968885253717,0.203981201940645,0.213470592917594,0.187613257715853,0.177220115217289,0.0713305619348247,0.0123172777577867,-0.0699678566573621,-0.127135857199507,-0.184303857741654,-0.241471858283826,-0.127494772820303,-0.055978941204743,0.194071099048452,0.20583891340174,0.236064380957949,0.280649456024251,0.33356912845655,0.34581998241621,0.369372096345438,0.3697453850174,0.364287948292672,0.336208344856635,0.321217857661156,0.280667824957614,0.300011536387725,0.33552725675338,0.321117440825421,0.342506226836956,0.308673477566278,0.227922892891433,0.22361269332682,0.221955815537194,0.222959983894542,0.224466236430567,0.246055856113572,0.247762942321066,0.267294016871506,0.267294016871506,0.282005083306672,0.305653248122244,0.313787011816772,0.353351245096328,0.354355413453676,0.362187926640999,0.369769397738986,0.382020251698646,0.375091490032936,0.399291947445049,0.403157995620843,0.337636010303814,0.206642248087619,-0.0160822935724186,-0.221083263725243,-0.367541218644614,-0.463138046264251,-0.506969995062541,-0.512041045267153,-0.495422058953025,-0.449230314514966,-0.419155472212358,-0.365733715601385,-0.303425069027872,-0.233283909267034,-0.139846043615697,-0.0126179127395638,0.041105094378616,0.0520003210558544,0.106627079695645,0.146191312975202,0.147647357093358,0.182843458018446,0.216834556914714,0.229637703470914,0.249821487453631,0.245051687756224,0.278841952981022,0.297117817084776,0.299075945381606,0.312381176116482,0.22893478562077,0.217487266346989,0.183847626375794,0.164718219168293,-0.0656944864776986,29,"prev_rew",6863.34621403959,398.33957829138,"risk",TRUE,"normals","trained"
"40","P019",4229397,"RESPONSE LOSE VAL4_30",4,"4_30",872,4228342,TRUE,FALSE,TRUE,FALSE,TRUE,FALSE,FALSE,TRUE,FALSE,"risk",FALSE,-1,0,FALSE,6589.26859339399,854.167651095429,0.102049773400949,0.14036227762343,-0.187845291096985,-0.342437009710886,-0.449129897679231,-0.501898944857926,-0.508375830762828,-0.501698111186457,-0.4621338779069,-0.420159640569709,-0.382051451408308,-0.319541971163324,-0.247543099941393,-0.154908568975934,-0.0359648270479293,0.0293563245976304,0.0540588661884194,0.0909118449031332,0.141572138531395,0.146894230825345,0.170492187223051,0.212617049813847,0.231344789678408,0.242842517370055,0.245804814024236,0.275176738476698,0.287879468197165,0.305854081793714,0.320012855632335,0.228231867770626,0.224215194341229,0.190927013295105,0.17109468823746,0.129471909825339,0.113706466614958,0.120986687205739,0.120534811444931,0.0943762257359857,0.0887528829348311,0.0545587673923982,0.0176097377913425,-0.00400716907529432,-0.0696822900668209,-0.0448916906354568,-0.0340144231230859,-0.0244168909384157,-0.000718517704974913,0.031465078148064,0.0486865654766007,0.0899076765457827,0.0872466303988088,0.127262739439171,0.163764259228811,0.205387037640933,0.212114965635172,0.276130698416179,0.343403953348427,0.350093722945086,0.348129569638113,0.365602099055986,0.392413394197208,0.400798199981074,0.410588841465227,0.423391988021429,0.425299907900393,0.424596990050247,0.45120745152,0.443324729914808,0.457081836410492,0.358070836375867,0.0806693276581699,-0.174740894033581,-0.389130838327619,-0.516509594457355,-0.576307820137498,-0.614817676641837,-0.593730141137504,-0.539304216169181,-0.501196027007783,-0.420159640569709,-0.330135947333358,-0.249702061909692,-0.182472990385169,-0.112733497967272,-0.0519311039297819,0.0213731861567041,0.0657612897375298,0.148672767473647,0.172751566027086,0.185655129419023,0.20051682110779,0.212366007724508,0.233855210571781,0.228533118277831,0.237871884001178,0.241436681669768,0.24610606453144,0.253486701957956,0.253285868286486,0.266189431678423,0.290590722762008,0.253135243032885,-0.0732194731055824,30,"prev_rew",6863.34621403959,398.33957829138,"risk",TRUE,"normals","trained"
"41","P019",4257601,"RESPONSE LOSE VAL4_38",4,"4_38",987,4256431,TRUE,FALSE,FALSE,FALSE,FALSE,FALSE,FALSE,TRUE,FALSE,"risk",FALSE,-1,0,FALSE,6589.26859339399,854.167651095429,0.315060237243945,0.351704101591796,-0.0123166622323594,-0.0752780182381496,-0.088834291062362,-0.0639309158001034,-0.0701567596156692,-0.0224085542237169,0.0226283966033905,0.0831797485515428,0.0942758089002508,0.12962253507894,0.170725297734584,0.234073975821053,0.303494286153942,0.290640931179874,0.326790992044444,0.405266749171277,0.433734922102125,0.43047137494074,0.442270353139594,0.453667663995506,0.42690657727215,0.427509078286561,0.44036243326063,0.425249699482524,0.413149470776468,0.423492404857164,0.410438216211626,0.409634881525747,0.387191718738993,0.387794219753402,0.340146431197187,0.334372463142429,0.321870567093433,0.285720506228863,0.273017776508398,0.257854834312426,0.223763318580421,0.241486890087634,0.258708377416171,0.293452602580451,0.279494662413299,0.28441508736431,0.314289095995446,0.359476672076157,0.387894636589136,0.389451097543027,0.423743446946502,0.449851824237578,0.446638485494062,0.479123331854305,0.483140005283703,0.464462473837008,0.458738714200118,0.486755011370159,0.488211055488315,0.503625039773625,0.551624287254913,0.551975746179986,0.573665782698725,0.568745357747715,0.617196480989811,0.612326264456668,0.630802962231891,0.606803338491249,0.60002520207914,0.62553107835581,0.537114054491218,0.356614792257711,0.0706778525025472,-0.204916153171921,-0.398670437722436,-0.500794359664843,-0.532777121846413,-0.535890043754194,-0.515153967174934,-0.456711368777216,-0.41282921156106,-0.364327879901095,-0.303676111117208,-0.234890578638794,-0.161636496970174,-0.0816544873073165,0.00351793596866698,0.060516805520544,0.0949285183325283,0.140266719666843,0.183697001122193,0.229989162395987,0.253085034615016,0.297971360188523,0.300029905321088,0.302690951468064,0.327493909894588,0.341602475315343,0.359326046822553,0.35862312897241,0.356815625929181,0.383777546324007,0.369417938813913,0.35525916497529,0.000716606239067723,38,"prev_lose",6863.34621403959,398.33957829138,"risk",TRUE,"normals","trained"
"42","P019",4420422,"RESPONSE REW INV3_14",3,"3_14",1156,4419098,TRUE,TRUE,FALSE,TRUE,FALSE,FALSE,FALSE,TRUE,FALSE,"risk",FALSE,-1,0,FALSE,6589.26859339399,854.167651095429,0.356327887012745,0.279935962966545,-0.128749983266989,-0.0375714964196887,0.0400005091855306,0.105773536591898,0.127112114185567,0.187697819261744,0.249314118178334,0.278260592353078,0.293201560491115,0.307360334329736,0.369367730396045,0.400547157891735,0.419827190352839,0.413249887612203,0.414505098058889,0.456651478543054,0.450884683119428,0.443877022511351,0.462102678197238,0.458989756289456,0.421898287589872,0.347608657302737,0.260547260720567,0.231739872310806,0.234715338386069,0.080833646116636,-0.0789204107343536,-0.238674467585343,-0.349283612147349,-0.188849459454336,-0.164347751535016,-0.186138204889493,-0.154456693215128,-0.155310236318876,-0.108465782448537,-0.0517804786761785,-0.0499227672150832,-0.0171868787655016,-0.0137224979326469,-0.00749665411708337,0.0110302520760084,0.0282015309866788,0.0409544691250126,0.0736749088306456,0.0890695821859863,0.0909118449031332,0.10140540423743,0.133625819596915,0.160815351486056,0.193286808934876,0.208048083787909,0.227980825681288,0.188265967148131,0.241386473251899,0.443625980422015,0.437048677681376,0.432780962162643,0.441065351110774,0.483340838955172,0.476261452035862,0.484345007312521,0.480830418061799,0.50648691959207,0.550770744151166,0.532621266754468,0.556418325498867,0.547607613825515,0.501466077805325,0.313234719220229,0.127686721634499,0.0144723180564761,-0.0573034046415983,-0.0964659705782153,-0.098474307292914,-0.120443345098388,-0.0877543178388252,-0.0468984483976625,-0.00604257895650215,0.0348132904846856,0.0742007113750433,0.118827725237439,0.131329621286434,0.17425781856311,0.21352080133546,0.227362469377035,0.265904036461063,0.281151540202925,0.269854646182747,0.323427028047324,0.314841388591989,0.318707436767783,0.320012855632335,0.320414522975275,0.313784620939736,0.303848135956049,0.331244964597207,0.329115155903784,0.325990232149235,0.366001191608255,0.371175233439274,0.202062821974626,14,"prev_lose",6863.34621403959,398.33957829138,"risk",TRUE,"normals","trained"
"43","P019",4424160,"RESPONSE LOSE VAL3_15",3,"3_15",845,4423146,TRUE,FALSE,TRUE,FALSE,TRUE,FALSE,FALSE,TRUE,FALSE,"risk",FALSE,-1,0,FALSE,6589.26859339399,854.167651095429,0.317406235696291,0.29569661146065,-0.0975597265047006,-0.0567038570635402,-0.0158479876223775,0.025007881818808,0.0640473879076936,0.106827913367115,0.133337958001133,0.160400295231691,0.201320155793669,0.231809878180748,0.251163901994497,0.289335512315321,0.261168589891677,0.306155332300919,0.3282470361626,0.315092430681325,0.322623693361443,0.320615356646747,0.315795348531471,0.301935434323018,0.312192451080341,0.344203595286158,0.324978339419898,0.357322859689174,0.370020439828322,0.362991261326878,0.382898899011325,0.328949954012744,0.253185451450751,0.243746268891669,0.240601498360623,0.269947194535081,0.306479438878938,0.350330496851197,0.361646791470639,0.399710350927288,0.434112415021646,0.468514479116005,0.502916543210389,0.537984333734263,0.473863837068358,0.425739394571089,0.376835091453434,0.342369294788215,0.371426275528612,0.346472691848485,0.352698535664051,0.386307613989596,0.457973945400426,0.424940444734783,0.383982653052317,0.326736510569735,0.314690763338385,0.363443137087686,0.384430255756282,0.419877398770708,0.465918517955164,0.486905636623762,0.502570662998408,0.529532583393231,0.543038647799577,0.558950350314194,0.573017439215818,0.569598900851462,0.559255966770766,0.572862448012847,0.512562138154033,0.36831335362083,0.134794002119289,-0.0901397099269169,-0.221272510838755,-0.29716060335242,-0.293308072827578,-0.289919004621526,-0.241367464543695,-0.161636496970174,-0.0681986313188367,-0.00609081841679358,0.0656570107158016,0.141270888024191,0.198960360153899,0.252633158854208,0.303092618811003,0.297017400249041,0.340949765883065,0.359928547836965,0.389551514378764,0.443073687825472,0.432580128491173,0.450102866326917,0.477416245646813,0.482135836926352,0.484796883073328,0.488913973338461,0.494236065632411,0.468278313594935,0.445985776061784,0.429919082344199,0.424998657393188,0.443977439347086,0.165913807118761,15,"prev_rew",6863.34621403959,398.33957829138,"risk",TRUE,"normals","trained"
"44","P019",4443307,"RESPONSE LOSE VAL3_20",3,"3_20",1000,4442138,TRUE,FALSE,FALSE,FALSE,FALSE,FALSE,FALSE,TRUE,FALSE,"risk",FALSE,-1,0,FALSE,6589.26859339399,854.167651095429,0.444597121315116,0.415280486549923,-0.039278582627183,0.035933627338267,0.113103965600547,0.196952023439201,0.266340056932024,0.340046014361452,0.326583463917248,0.37173422049154,0.39477318983698,0.382020251698646,0.407275085885975,0.390656099571847,0.431324918044487,0.449254344064955,0.471963611466406,0.485801051430677,0.486704802952292,0.475608742603584,0.463157054972455,0.495641901332698,0.530285709661244,0.531289878018592,0.557649297399007,0.558251798413418,0.466772061058911,0.304046578750485,0.290741348015609,0.254892537658245,0.248767110678414,0.226323947891662,0.233403334810973,0.463458305479659,0.405799730837875,0.397523838698911,0.375322448755126,0.319912438796601,0.312933468713025,0.349083529577593,0.317180537779539,0.301918117222944,0.301375678614967,0.330807665473839,0.288632594465175,0.268063569350311,0.253341965345949,0.238620361341613,0.223898757337253,0.209177153332917,0.19445554932858,0.209664051014817,0.31423888757758,0.347677693877305,0.360882507776447,0.381668792773573,0.40462713758713,0.415747210657447,0.482336670597822,0.540327393234735,0.549364908450878,0.535457176701593,0.535507385119459,0.515695933224295,0.490148310622667,0.459491840468131,0.449952241073313,0.426605326764946,0.409885923615083,0.322322442854239,0.091765388006878,-0.098544599077929,-0.312328695129709,-0.445891291808621,-0.466729947592049,-0.48207817217961,-0.396247881560331,-0.32844141323033,-0.224748478229567,-0.130457069474483,-0.0399267276578304,-0.0814582180374746,-0.00403227328422859,0.0605357520933211,0.0955812277648058,0.180260153937856,0.278814419332502,0.290891973269212,0.341502058479608,0.34581998241621,0.380564207580488,0.393015895211617,0.413149470776468,0.383827754741873,0.371940911811753,0.389413441229628,0.4194255230099,0.409283422600674,0.409383839436409,0.387643594499801,0.391660267929196,0.410337799375891,0.0427861315951184,20,"prev_lose",6863.34621403959,398.33957829138,"risk",TRUE,"normals","trained"
"45","P019",4467311,"RESPONSE LOSE VAL3_26",3,"3_26",1098,4466045,TRUE,FALSE,FALSE,FALSE,FALSE,FALSE,FALSE,TRUE,FALSE,"risk",FALSE,-1,0,FALSE,6589.26859339399,854.167651095429,0.273896840834522,0.28330427402779,0.043515098436254,0.139259730611848,0.194450064638734,0.236510615323493,0.271662149225977,0.268900686243266,0.307259917494002,0.314640554920519,0.323929112225998,0.313535969727434,0.302389700960859,0.287126341929153,0.254139411390233,0.227654470965149,0.220801021926243,0.224918112191373,0.260264838370064,0.283647902739294,0.302705009825065,0.321268066079022,0.34225518474762,0.36394522126636,0.356213124914772,0.337435176632344,0.315644723277867,0.285921339900333,0.232047707528552,0.17857574249971,0.184952211568879,0.193889309949285,0.186860131447841,0.212868091903185,0.203830576687042,0.230993330753335,0.239980637551609,0.240532930148152,0.266189431678423,0.286423424079007,0.332062875920525,0.336732258782198,0.33788705239315,0.347376443370101,0.364798764370107,0.346422483430619,0.33117457314286,0.327880128493576,0.367761061024288,0.392764853122281,0.3728321112289,0.401501117831217,0.379258788715935,0.370321690335527,0.378355037194322,0.366053974816793,0.358472503718809,0.327242867805249,0.350639990531486,0.394020063568967,0.425550949989729,0.455776417545938,0.456077668053144,0.486955845041628,0.489416057517135,0.492026895246242,0.516930270508501,0.511809011886021,0.517281729433572,0.402204035681363,0.166425305375788,-0.0803490684427615,-0.273300018307398,-0.388829587820414,-0.435824666944354,-0.466652635514972,-0.453046154272891,-0.431255700918414,-0.398912823188009,-0.342345249498914,-0.288563377339105,-0.223543476200747,-0.171929222633003,-0.0355129512871237,-0.0413873361776165,-0.00528748373091501,0.0314148697301954,0.075598277453558,0.104367700891611,0.126861072096231,0.184600752643806,0.181638455989626,0.191931181652455,0.198842011740362,0.220517702996841,0.259712545773521,0.292448434223103,0.33786534064488,0.370644652591003,0.354907706050219,0.352648327246182,0.376597742568959,9.94611027823681e-05,26,"prev_lose",6863.34621403959,398.33957829138,"risk",TRUE,"normals","trained"
"46","P019",4482225,"RESPONSE LOSE VAL3_30",3,"3_30",801,4481255,TRUE,FALSE,FALSE,FALSE,FALSE,FALSE,FALSE,TRUE,FALSE,"risk",FALSE,-1,0,FALSE,6589.26859339399,854.167651095429,0.50148405787306,0.454331229301904,-0.304077778460147,-0.263258334733907,-0.202907816457222,-0.164598793624355,-0.0981730567857095,-0.021806053209308,0.0651047181192589,0.12234231448816,0.200722604904974,0.284894542396895,0.34508453516857,0.394020063568967,0.394961471403982,0.389362065174133,0.4282633721922,0.450303699998386,0.494040659898002,0.521292974925908,0.512260887646826,0.543490523560385,0.533197797897556,0.570560758744327,0.536389135199547,0.512827283731539,0.58581621982265,0.550921369404769,0.472345195442199,0.475156866842776,0.439684619619418,0.413551138119407,0.388848596528618,0.440211808007026,0.429818665508464,0.421132609217394,0.429919082344199,0.45457141551712,0.455575583874468,0.43895659756034,0.428864705568982,0.429366789747657,0.44427868985429,0.500461909447974,0.499859408433565,0.4914746026497,0.490821893217422,0.495892943422036,0.498754823240482,0.507993172128093,0.501666911476794,0.511106094035874,0.540167050222842,0.565039652583816,0.664944686381763,0.69617432229532,0.676341997237675,0.683220550485516,0.718311771604386,0.722588413064084,0.709579969865931,0.705563296436534,0.691655564687248,0.728236483835386,0.709651195761038,0.729161252834239,0.721780615407722,0.707320591061896,0.694366819252091,0.586569346090663,0.378204411940718,0.179579910857061,0.0672134716696924,-0.0335548229902936,-0.0524833965263246,-0.0505252682294921,0.00341317864535833,0.0878719534213358,0.150860695836874,0.213849438252415,0.276838180667953,0.339826010203151,0.437500553442184,0.431877210641029,0.465567059030093,0.512762971825502,0.553757053526931,0.556169240559266,0.605397502790959,0.608560633116609,0.607054380580584,0.60459416810508,0.574911864342154,0.551281957133097,0.505081083891781,0.546553237050301,0.5508711609869,0.537917389177097,0.550218451554625,0.549415116868744,0.561013261396127,0.546251986543094,0.374064309484063,30,"prev_lose",6863.34621403959,398.33957829138,"risk",TRUE,"normals","trained"
